accel_x,accel_y,accel_z,gyro_x,gyro_y,gyro_z,subject,label
0.00226869044134375,-0.0016553713205468747,-0.00812555056015625,0.0222503515984375,0.019402769061484373,0.00946815436515625,1,5
0.00017373955275000003,0.000381628339609375,-0.0050253200125,0.01192575516875,-0.004313741815078125,0.0063075711740625,1,5
0.000428091215703125,-0.00122159141171875,-0.0017025929382812502,-0.004149542187499999,-0.012640026993750001,0.004334764210234375,1,5
0.00032935231273437495,-0.004753393611875,-0.00494682587421875,-0.016228377761718753,-0.007696515702343749,-0.00035190115179687504,1,5
-0.00019515715203125,0.00029818547171875,-0.00233029287640625,-0.00648257872109375,-0.00016643552968750007,-0.003957091590625,1,5
-7.7691765703125e-05,0.0036927301098437504,0.001047306393125,-0.00113513005390625,0.00178172668203125,-0.00324004854921875,1,5
0.00038704339601562497,-0.0013126573885937501,-0.00056637150859375,-0.0009543785406250003,-0.0039313067640625,0.0040416269709375,1,5
-2.9529718359375004e-05,-0.007002324574609375,-0.0056332259484375,0.00358354369921875,-0.0016042518234374997,0.0034357441303125,1,5
-5.8185086242187456e-05,-0.0024193387269531245,-0.004110487111953125,0.0029330078073437496,0.0035838500529687496,-0.0037486552054687497,1,5
0.0006202866657109375,0.0037648777023437502,0.0007407803482031251,0.00439301099303125,0.0015412718943750001,-0.0032561141890625,1,5
-0.0001433272791015625,0.0023164320969531246,0.00160853301,0.003059626775921876,0.0024628152609375005,-0.00037665276171874987,1,5
-0.0002777131511328125,-0.002257056467109375,3.478350921875005e-05,-0.0036079439222656247,-0.00014777854296875003,0.0023212706618125,1,5
0.000181605713125,-0.0017186222710937503,-0.00146145341640625,-0.0015405563046874998,-0.0007244964050781249,-6.606769298437502e-05,1,5
-8.259614593749998e-05,0.001272128770703125,0.0005124133817968751,0.0006062141996875,0.0011323722402343751,-0.00119966587003125,1,5
0.0041978554525,0.0232002855,0.01540691931296875,0.017663580413281248,0.1044727909375,-0.11545152656249999,1,5
0.00033543391312500004,-0.0030851784322499997,-0.004549659834296875,0.012235944784375,0.0460711500390625,-0.05013406490625,1,5
0.0003014134542734375,0.0012261936677500002,-0.0028215438206249995,0.01471535150625,0.012675679117734377,-0.01124142163046875,1,5
0.0005273885559921876,0.0016895626728906249,0.0006399213671874999,0.015418441789062499,-0.001545000670546875,0.0036163485570312503,1,5
3.2003923281249995e-05,-0.000562573351328125,-0.00029082933835937496,0.00312758665234375,-0.0060732518828125,0.00951085225,1,5
-0.000413725171328125,8.311265335937507e-05,-0.00103117040390625,-0.00184305352109375,-0.00453180617703125,0.00637998093246875,1,5
-2.8958115234374915e-06,0.0014789517866406249,0.00014217962210937493,-0.002207139922734375,-0.0019717160275781248,0.0032931694738750003,1,5
-8.72514912109375e-05,-0.00044330449328125004,0.0005637156553124999,-0.0015511572224999998,-0.002354368136484375,0.003652468692578125,1,5
-0.00039144398414843755,-0.0021641817169921872,-0.0008237298730468751,-0.0004938278339843749,-0.0008034543046875,0.001179929425390625,1,5
0.0003347643424140625,-0.0003022623585546875,-0.0002820164148437498,0.00046817678570312506,0.002322596571171875,-0.003220978975,1,5
0.0008531180974218751,0.00274187871859375,0.0017945788566359375,0.002799266545390625,0.001233596877875,-0.0024239185365625,1,5
0.00029199637578125007,0.0013674709632812499,0.0005653670564015625,0.00031161400359374985,-0.00043564620220312505,0.0009825199477343752,1,5
-0.00037946079296875,-0.000461930775234375,0.000506035197421875,-0.00294422857890625,-0.00016514982124999999,0.0013644163672656248,1,5
-0.027423536419375,0.10826019883593749,0.0565136401171875,-0.0194046051953125,-0.0941628840625,0.063357475046875,1,4
0.001994011503804687,-0.01065648041796875,-0.01244282411484375,-0.021383468203125,-0.07442173312499999,0.07113201546875,1,4
0.0004990939870546875,-0.0012304450351562498,0.00085362916484375,-0.01210499642734375,-0.041721848828125,0.042792488906249995,1,4
-0.011484648267375,0.026879096379296877,-0.00505578716296875,-0.010372026851562502,0.043195859809375,-0.004316794205468747,1,4
-0.065796853784375,0.10083268419179686,0.044219182463593756,0.024599318202343755,0.042226722028281254,-0.06043341967421874,1,4
-0.054337738488281245,0.08939494665,0.0411440983359375,0.023801117290625,-0.037183543945156244,-0.011475301718749997,1,4
0.005381491798437499,0.006763776568125001,-0.014053555924765624,-0.0154771018828125,-0.0353492692265625,0.0517038584375,1,4
0.0027169522732812504,-0.0036173581980468747,-0.002785184709140625,-0.014317010546875002,-0.017571495132812504,0.031101473609375003,1,4
-0.001374050682734375,0.001429395058828125,0.00058972049359375,-0.008026776628125,-0.007522930771484375,0.01392440072265625,1,4
0.00040755258203124995,7.186188076718749e-05,-0.00072973684046875,-0.0033459591514843744,-0.00012898187964062506,0.0035190524142968754,1,4
-0.00025082533100000007,0.0005245478839703125,9.086002062500003e-05,-0.0005436304092968751,0.0009225426366718751,-0.0006388664337500001,1,4
-0.008330132995703125,0.0130935595546875,-0.00479993768046875,-0.20355172109375,-0.02655661895859375,-0.30118194609375,1,4
-0.000920636948203125,0.012408015771875,-0.00038457699140625,-0.12547719218750003,-0.015005918880703125,-0.1650439071875,1,4
0.0008098211644531252,-0.000680138064765625,-0.0010191764617187501,-0.0533116872890625,-0.009269405699453125,-0.05615196717992187,1,4
0.00017650587773437496,-0.001319751816015625,0.0001114388046562501,-0.0104680370771875,-0.0009874752421875003,-0.00520330691359375,1,4
-0.000864749218359375,0.0037754687503125,-2.8141573390624993e-05,0.006806985868125,0.0007701287843749998,0.013040334258515624,1,4
0.00030507930367187506,0.0004600944093749997,-0.001489179586640625,0.0104993994453125,0.0004412253429687499,0.018855828164062498,1,4
0.00021088929281250004,-0.00145394314375,-0.000949054928125,0.0074051837425,0.0020460597281249998,0.009096424619140625,1,4
-0.00088498266171875,0.003152818281875,0.000646933415390625,0.0031257466708593754,0.0019483860953125,0.0027879302339843754,1,4
0.00019832224375000002,0.0005060094115624999,-0.00046212028257812496,0.0013780995674218751,-8.427481093750003e-05,0.002573990215625,1,4
-2.3607622890625025e-05,-0.00018508045546875007,0.0006435653356249999,-0.00035746513070312503,0.00013826099531250014,-0.002254794621875,1,4
-0.0007491433842968751,0.0020931053210937497,0.0009488928198437498,-0.0010564633002343748,-0.00055644872109375,-0.0006369508757812499,1,4
0.00035600353703125,-0.0017745468781250001,-0.001628177418515625,-0.000341585719375,-0.0008880294301562501,0.0027149862359375,1,4
0.00031147680328125004,-0.0010202231869531253,0.000799033189765625,-0.0005536105792734375,0.0008105339128125,-0.00242016331015625,1,4
0.02594527010703125,0.00108246310390625,-0.0032570741787499996,0.0610835223671875,-0.0260312073203125,0.202239813203125,1,6
0.00016433907390624993,-0.0017953079390625,0.0037933239978125,0.0380897633203125,-0.002010827359609375,0.07578559215625,1,6
-0.00021030541984375,-0.00038310208453125,0.00022674041762500008,0.01469722799734375,-0.0004656852644531251,0.006290100703828126,1,6
0.000411954247890625,-7.215608351562506e-05,-0.00038745334432812505,0.002800184973453125,-0.0008102251571875,-0.019162037233671877,1,6
-0.00021613294820312497,0.00016734800878125003,0.00010720455203125004,-0.001934301066078125,0.00282376059765625,-0.017874464890625,1,6
0.00011284470234375002,-4.274254968749991e-06,9.708819914062511e-05,-0.002842671128125,0.00038436764296874995,-0.01360615003046875,1,6
8.877444531250001e-05,-0.000348809270078125,-0.00021710309874999997,-0.0021879536083906246,0.00131674184140625,-0.0049507337321093746,1,6
0.000542123979375,-0.0006598927315625001,0.00027055347109375004,-0.001216268134015625,0.0007381986734375001,-0.0005624465305468751,1,6
0.000876250824453125,-0.000780642940625,0.001000732132015625,-6.42058228125e-05,-0.0006471765640624999,6.153121554687495e-05,1,6
-0.00017441823031250005,-3.744695218749997e-05,0.0008819004462343748,0.0002675760253125001,-0.00085653365703125,0.0008234217108593749,1,6
-0.0003487243788281249,0.0005181373835937501,-0.00017229662226562502,0.00012063056312500002,-0.00017068815546875,0.000549703445,1,6
5.243606835937507e-05,-0.00028633162484375006,0.000860254075703125,-0.0005309450265468751,-0.0007146639103906251,-0.0004825680190625,1,6
0.0003699950624218751,-0.00026582259743750006,4.179742265624989e-05,-0.00028201489217187503,-0.0006363455299218749,-7.991967429687514e-05,1,6
-0.05328415757242187,0.005297998924999998,0.026418740717890625,0.2369262875,0.05193727443828125,0.28560065859375006,1,6
0.012907400220546875,-0.01013087643171875,0.00067701641953125,0.150861648203125,0.025084133765859374,0.18879537125,1,6
-0.09150014925390626,-0.053612741214531245,0.07972522603984375,-0.032698813125000004,0.07333687483617188,0.019882428601562495,1,6
-0.10647745084765625,-0.041838417067187494,0.08468021386171876,-0.008546080046875001,0.017939613664062506,-0.0121801157265625,1,6
0.01430050457421875,0.0453949099765625,-0.030562400060156248,0.11325044215859376,-0.07625541556328125,0.05735823911484375,1,6
0.005411150796874997,0.06335399858593752,-0.04526436920625,-0.009551553255468744,0.007581922117968749,-0.06130236018046875,1,6
-0.13164047967187498,-0.13164379227343748,0.0942144230515625,-0.2167378958578125,0.03416011636093749,-0.08182480648835938,1,6
-0.11430105605234375,-0.34982828070312505,0.1502934674765625,-0.20847591432656248,-0.004424815593750002,0.017815131353828128,1,6
-0.00414207125390625,-0.20808851327343747,0.04151779249296875,0.0800364705234375,-0.018494700546875,0.048399356875,1,6
-0.00015169876757812505,-0.005250114765625002,-0.004911223240625,0.19487829140625001,-0.0253284371484375,0.055677073671875,1,6
-0.0018392330276562501,0.0176070095140625,0.0015135972181875,0.11782843703125001,-0.015051913546875002,0.032194684328125,1,6
0.00158425133,0.004326886802343751,0.0015071642420390625,0.0481197207625,-0.00659228029375,0.010626708657578122,1,6
0.0012161961604374998,0.005042507360312499,-0.0003235790884140626,0.005523137333984376,0.0002472017054687501,-0.0022637730846093752,1,6
-0.0009373875487031251,0.0036408520853124997,-0.0009400673867187498,-0.0060042573753906255,0.002543336938046875,-0.00439023765390625,1,6
0.0009161932421875019,-0.010782967353125002,-0.0087836404828125,-0.46622599656249997,0.070601635421875,0.0752891383125,1,1
-0.0044791686873437535,-0.024868136696875008,0.004334496220312499,0.12558358382812498,-0.106016830046875,4.796548437499201e-05,1,1
-0.00467979327328125,0.010990054531250001,-0.0050708719687500015,0.24636389251562502,-0.08965132049999999,0.006927958265625003,1,1
0.013559022351562502,0.0014119551828125076,-0.019512986734375,0.12763623463281248,-0.04020771619609374,-0.0267648990703125,1,1
-0.000275332171875,-0.006556547547656246,-0.011333538976328123,0.03755891040624999,0.038828459264843754,-0.036362444367968746,1,1
-0.004555941093749998,0.02011885033984375,0.019608418608984372,-0.015348241070312492,0.0776376071015625,-0.0007423726101562465,1,1
0.0089777156953125,0.009818855203124994,0.021390844702500002,-0.009871683742187491,-0.010536542801562496,0.02042575387421875,1,1
-0.008842896539062499,-0.0169992309609375,-0.0011395377187499982,0.011928865773437505,-0.067910667840625,0.0276604893609375,1,1
0.0072248367093750016,-0.004841040738281251,-0.007480088671874998,-0.2182447922421875,0.0688841202109375,-0.019117914804687504,1,1
-0.0001360892335937505,-0.00962379245859375,0.009163136968750003,-0.044413977760937515,-0.0200806558984375,0.0281301111484375,1,1
-0.014893122632031247,0.004526481621093753,-0.003745840682031249,0.0417240801140625,-0.09964951435937501,0.043118011414062504,1,1
0.006062941320312503,0.0017577347070312516,-0.02373639761484375,0.008233428359375001,-0.040122372343750004,0.00584030628125,1,1
0.0008114374921875025,-0.012411415960937502,-0.008710192747812498,-0.022202359218749995,0.07352764674999998,-0.029533453500000004,1,1
0.005421913046874997,0.010441050117187501,0.023022930895937502,0.010053347734375004,0.08111863018749998,-0.002951487624999999,1,1
0.015789317359375,0.0024008061796874994,0.016393706328124997,0.01670081540625,-0.035660483124999996,0.011670802546875001,1,1
-0.011391714828124998,-0.0007980636015624994,-0.0029330186460937487,0.0419470204140625,-0.06919238062500001,0.025029792156249998,1,1
-0.013002562359375,0.014202179171875001,-0.0048775975054687485,0.0436533746796875,-0.05250744601562499,0.007641346789062501,1,1
0.010250625476562497,-0.00268428271875,-0.013489872046874997,-0.018417303609374994,-0.03235721846093748,-0.035199436195312496,1,1
0.014731338000000002,-0.0025520825078124976,-0.013789904619531248,-0.041953836359375,0.044375648687500005,-0.0443131078125,1,1
-0.0026572125757812477,0.0044826088359375005,0.0017620077820312515,-0.03934554534375001,0.080839490359375,0.004112248252343751,1,1
0.001389337375000002,-0.005280619882812502,-0.0343538913515625,0.22615055399999998,-0.0006696747210937493,-0.04811856371875,1,1
-0.011509409421875,-0.00379685262265625,0.010977621523437498,0.050699369171875,0.062663205703125,-0.005997320335937499,1,1
0.0027605971015625024,-0.005597741841406247,0.02157952179015625,-0.009223644359375002,-0.0066401726640624905,0.0324665173828125,1,1
-0.003399304445312495,0.0007880941882812496,0.0018892894674999994,-0.005490191703124999,-0.0419442669609375,0.039834802531250005,1,1
-0.0051830808789062495,0.012281729098437503,-0.005573643096875001,-0.018004829585937507,-0.08484902374999999,-0.013567614515625,1,1
0.01673599684765625,9.632801953125131e-05,-0.015350566907031248,-0.040011937109375006,0.03611263989843749,-0.05100424092968751,1,1
-0.004253665031249998,0.0034412005390625014,0.0009466613749999995,-0.020461786117187505,0.0988666047421875,-0.010831849390625002,1,1
0.004323237851562498,0.009405884210937503,0.022334969843749997,-0.0332963959921875,0.04524910875,0.012919187406249998,1,1
0.006279279468749998,-0.0032322057046874995,0.0094497514921875,0.010998215281249994,-0.026093015937499978,0.014374398468749997,1,1
-0.0152528772421875,-0.007011200243749993,-0.0095096758359375,0.06646987892968749,-0.07272519632812499,0.0356831625,1,1
0.0006151886098437504,0.0029968069453125013,-0.015820107710937496,0.030376209865624983,-0.045400651484375006,-0.002263926546874996,1,1
0.01125068197703125,-0.009151527726562504,-0.016834671265624997,-0.005963399899999999,0.011311853125000007,-0.0520452821953125,1,1
0.0019483710078125002,-0.005298511867187505,-0.003036615421875,-0.05538091692968751,0.059281872031250016,-0.018660833789062498,1,1
0.004949722148437497,-0.014431890148437498,0.0088510372109375,-0.622532426484375,0.1865587940078125,-0.008881942429687501,1,1
-0.0064887757421874985,0.000504964960937499,-0.0011812048749999995,-0.349389559753125,0.066144137625,0.0402080819140625,1,1
0.003121839545703123,0.007866809914062502,-0.0105843984609375,-0.177070454065625,-0.009668671609374999,0.0007780377656250014,1,1
0.011125118522265626,0.0050579491875000025,-0.0077402196015625,-0.07256200115546875,0.051454820140625,-0.032446644187500005,1,1
-0.015572538398437497,0.004248665367187498,0.0096498332265625,0.046560377157031235,0.056830849242187495,0.009485255765624999,1,1
0.005370283031249999,0.001301521335937493,0.021701321875,0.07818688282812501,-0.0037467302421875046,0.01681996715625,1,1
0.016819867666406252,-0.000493861392968746,0.011879301032031248,0.0212265290078125,-0.038753032156250006,0.009376302093749999,1,1
-0.010952823669531249,-0.007514276205468752,-0.006261718741406253,0.028763308335937515,-0.08279561645312501,0.004405443656250004,1,1
-0.0077522440468750006,0.0038957828515625015,-0.004513306554687499,0.0065166138281250105,-0.023084239710937485,0.011991680906250003,1,1
0.0025042341718749988,0.017036635429687502,-0.002764138085937499,-0.046688552921875,-0.0183866670546875,0.006552929343749993,1,1
0.006332780710937504,-0.0014396238039062481,-0.017223630717968747,-0.019968053828125,-0.03387379039062499,-0.04557332465625001,1,1
0.010281299133593748,-0.009718595272656252,-0.02428533662421875,0.036893053593749996,0.041883859914062495,-0.025448113359375003,1,1
-0.008071096296093754,-0.0031776209453124975,-0.0014020196328125012,-0.0005214652257812466,0.09423642673437502,0.022856844765624995,1,1
-0.020068441409375002,-0.00034549196874999674,0.02278047695476562,-0.016811327874218754,0.032923545624999995,-0.0046919006249999985,1,1
0.016667720390625,0.01841750538359375,0.007977233817578127,-0.005211384304687497,-0.016579868929687488,0.02174453753125,1,3
0.004974657196874996,0.00529168809296875,0.004831622608593751,-0.047183077500000004,-0.0030446852343750004,0.011244758023437499,1,3
0.0008193714859375013,0.0005391306695312495,-0.0104998295625,-0.4634653071328125,0.11512513527343748,0.0032808683984375045,1,3
-0.0007460159453124993,-0.0030217886562500006,-0.006259458671875002,-0.42991729101562504,0.109795925640625,-0.0054457254531249995,1,3
0.004612375603125,0.016375435289062497,0.008587935835937501,0.1072422761328125,-0.029559281609375,-0.010596840601562496,1,3
-0.002514590029687503,-9.472820312498437e-06,-0.010064095757812499,-0.15257250285156249,0.02260878867187499,0.0012976293828125054,1,3
1.1816437500002802e-05,-0.0105581440390625,0.0027374388750000013,0.02918590781249998,-0.009839633898437526,-0.014149005183593744,1,3
-0.0022041602914062456,0.007778970101562496,0.014726738242187502,0.490146167109375,-0.1051209406796875,0.01400652295703125,1,3
-0.01378171267421875,0.005858488828124999,-0.00042410904687500105,0.332421450859375,-0.0598895389453125,0.015556792640624997,1,3
0.0015739015624999988,-0.0016072656562499954,0.032136656109375,-0.39725700140625,0.11600924135937501,0.02967120007812501,1,3
0.03964376218750001,-0.0086470933671875,-0.0108835790859375,-0.3119985066328125,0.09580487744765624,0.051513822196875,1,3
-0.008715430625,0.0013467856328124982,-0.033070421640625,-0.55106734246875,0.19361117954921875,0.039249507665625,1,3
-0.022805336328125002,-0.008704147781250001,-0.008272070515625,-0.1500165693515625,0.06948822226562498,-0.038034567578125,1,3
0.034630883125000005,0.0027460578359374994,-0.014158873953124998,0.087649004296875,-0.01621061976562501,-0.004984696875,1,3
-0.009433665937499999,0.005043782753124999,0.017345064054687498,-0.169951145078125,-0.009288858906250001,0.009407530546874997,1,3
0.0007776907812500032,0.008616865575781252,0.0329044677265625,0.24475172578125,-0.11903580772656251,-0.042663578828125,1,3
0.017497640937499996,0.00712575036171875,-0.024027965875,0.44344188978125,-0.1193905575703125,0.041207490546874996,1,3
0.032449703035156256,0.0055317255992187505,0.0083898892734375,-0.456304320609375,0.13185416645312498,0.01672716246796875,1,3
0.015172298304687503,0.02045856263046875,-0.0135831241796875,-0.423129134046875,0.10811662603906251,0.086318904875,1,3
-0.030317480273437503,-0.01985740716875,-0.0077560146320312506,-0.5784944359375,0.24673948916406252,-0.012523906624999998,1,3
0.007254149343750002,-0.0174511813171875,0.021564294313281246,-0.126980621953125,0.10859418,-0.07204530858593751,1,3
0.0305783176796875,0.021871219429687495,-0.0140896254765625,-0.06375151240625002,0.014382754273437492,0.028109116281250002,1,3
-0.0020767023515625,-0.0006196163281249976,-0.020053380687500004,-0.12026683951562499,0.011668263023437504,0.012687791804687503,1,3
-0.025385354062500004,0.009830774437500002,0.032293756781249995,0.39417543625,-0.18101809890625004,-0.007040080898437497,1,3
-0.0148840284921875,0.006992174546875002,0.024999773109374998,0.4226982213671875,-0.14915811679687502,0.013558221968750003,1,3
-0.019365826148437498,-0.03116685833046875,0.020266895984374998,0.2565275456093751,-0.085425165484375,-0.022963649540625,1,2
0.0003311659124999979,-0.01039979022265625,-0.0083564998828125,0.122961985640625,-0.049530541796875015,-0.0175779673203125,1,2
0.004860752998437504,0.008066409490625003,0.0004880002421874998,0.44262297976562504,-0.192605951265625,-0.09086698231015625,1,2
0.0032633286093750047,-0.0008268257343749968,0.01392337365625,0.27799381234375,-0.090202947984375,-0.03620575843046875,1,2
-0.00974058582578125,0.010129323490625,0.021539687437499996,-0.093487833453125,0.05219500773437497,0.03842626148125,1,2
-0.02453581934140625,0.011221586115625003,0.029574865750000002,0.1387286817890625,-0.08139458703124999,0.021359384796875,1,2
-0.012845104656249998,-0.008124625445312502,-0.0035207498281249975,-0.08833259530468751,0.0031257491406249983,0.043559754234375,1,2
-0.001256753062500002,-0.007137537062500001,-0.0158314805609375,-0.39653148703124996,0.12495441906250002,0.028710475156249998,1,2
-0.0281747392734375,-0.0268149715,0.011955655062499999,0.24941053099296875,-0.0896451587109375,-0.026093997367187503,1,2
-0.009503681187499996,0.0019920172249999965,0.005265517265624999,0.19089759156796876,-0.05229054386718748,-0.017707135781249998,1,2
0.003733589273437501,-8.01675296874995e-05,0.0027681939296874992,0.43471438021562503,-0.15844772201562501,-0.0654711840859375,1,2
0.013705842546874996,-0.0013254468093750003,-0.011114092570312498,0.15580465033125002,-0.06079888146875001,-0.027149573257812504,1,2
0.011420323304687502,-0.006909997390625001,-0.0017484580390625018,0.008381187448437522,-0.038004748851562506,-0.011342801734375005,1,2
0.008067186468749998,-0.0035510053750000027,-0.0008095867968750019,0.12508616421093752,-0.10904530167187501,-0.010948279367187497,1,2
-0.0006843576148437497,-0.006197432890625002,-0.015617041882812502,-0.2673226400078125,0.0680222045859375,0.051785236015625,1,2
-0.0035511262164062488,-0.008671525085937503,-0.006274543898437502,-0.38662853320312496,0.11886029021875001,0.03537268725781249,1,2
2.7888034374999593e-05,0.004304496574453125,0.008960910640625,-0.20659972328125004,0.035935239734375,0.010637669343750003,1,2
-0.010581873992187503,-0.019187093076562498,-0.001391715710937495,0.526623478984375,-0.152302597015625,-0.044070385609375,1,2
-0.0037036680078125044,-0.0005030079828125013,-0.0020369319062500005,0.34072065087500003,-0.075914970609375,-0.035089148437499995,1,2
0.0136945709703125,-0.0098277786875,0.004647618554687501,0.543764993375,-0.2056314336953125,-0.06725440127343751,1,2
0.0191540819078125,0.004330958687500001,-0.014400774804687495,0.21105508421875002,-0.1457058265859375,-0.030485704203125,1,2
-0.0008989582163281221,0.002408311179687499,-0.0064605697562499995,-0.19341046494296874,0.014072572578125013,0.008979009421875003,1,2
-0.009547745458515625,0.005200884914062502,0.024217951103124996,0.14559674724453125,-0.1068228408515625,0.007287404570312501,1,2
-0.0056302246484374995,0.013040227250000001,0.0164657846015625,-0.0545848990625,-0.01893077788281251,0.0348297157578125,1,2
-0.009734895765625001,-0.0024487136406249974,-0.003457992429687501,-0.383852734296875,0.1156008784375,0.0313391247109375,1,2
-0.009867189585156247,-0.018372404374999998,-0.001150645679687499,-0.22930531773437499,0.06793245565625,0.0017820415312500039,1,2
-0.0034650737898437502,-0.009563202778046875,-0.009579934120937501,0.04240365349453125,0.08844785195312499,-0.0502154179015625,1,5
0.0025226884015624998,0.003349752418046875,-0.0038431992225000005,0.027987915436718747,0.0287582997390625,0.008082892018750001,1,5
0.001429286760078125,0.004507318057031251,0.0060555257710937505,0.016870854220312502,-0.0065215408546875,0.0231563037328125,1,5
0.0015865402784375,0.006621947849218749,-0.0018097577295312502,-0.00155310145859375,-0.015023750281250001,0.02174255799140625,1,5
-0.001067317126328125,-0.0034203699632812503,-0.0016299613881249999,-0.0023273187140625006,-0.0132439526359375,0.018695559100781252,1,5
-0.002425569422578125,-0.008195114188671875,-0.0029744691453124994,0.00092365769921875,-0.0119070097125,0.007292546934375,1,5
0.00017521801031249997,2.4237986328125123e-05,-0.00561203236015625,-0.0039018171378125003,-0.0006337974484374998,-0.0034800618171875,1,5
0.00038110216882812506,0.001149073086015625,-0.0006235053385234375,-0.00014896519953125012,0.004305820299554688,-0.003404588777578125,1,5
-0.00047707748664062495,0.0005415491823437499,0.0016110410881953125,0.0019856122478125,0.0018036554292421875,-0.0022142738986718753,1,5
-0.00014450701609375,-0.0007702367543750001,-0.001540827979328125,-0.0015756741469843752,-0.00020652948593749982,-0.001425144291328125,1,5
0.00034331670609375007,-7.972978320312514e-05,-0.001860725535734375,-0.0007900193094218747,-0.0005794009839140625,-0.00024903808140625005,1,5
0.00026214847515625004,0.0009556438955468749,0.0004278907148437499,0.00487618623490625,-0.0011956888936796874,0.0018050526558593752,1,5
-0.000802392853515625,-0.00148831262265625,0.00025096622255468744,0.004962308446406251,-0.0022119226582031247,0.0025661191209375,1,5
-0.0007474036864921875,-0.002442810999921875,-0.003015453414164063,-0.00396225126484375,0.00410606496928125,0.001360805069921875,1,5
0.009229803396015627,0.0269408994015625,0.016833129281960936,0.03587011925109375,0.0795324717421875,-0.1115587478125,1,5
-0.000628456505859375,-0.00419396718203125,-0.004692351571164062,0.004893950189375,0.046438129765625,-0.0514219749921875,1,5
-0.0007767816181249999,-0.0013625707466406252,-0.003825142303953125,0.00019820881484375007,0.0191674080234375,-0.0138573657125,1,5
-0.00019229026382812497,0.00020078670030468756,0.00294869030471875,0.0046900599821875,0.0005370252212500003,0.004786364707890626,1,5
-0.0006619070447976562,-0.0032643699061796873,-0.0006698891335156251,0.0001808139681249995,-0.005615805540468749,0.008323519683828124,1,5
-0.0005815822062039061,-0.00155472450546875,-0.00425989747890625,-0.00297408478015625,-0.0048604364,0.0040678318003906245,1,5
0.00023589166789843752,0.00137945751171875,-0.002312879133515625,-0.00038413366453125006,-0.0027415195560156255,0.001934001620546875,1,5
0.00037182240899218745,0.0008915902215624998,-0.000978496501796875,-0.0016653919210937499,-0.00023644851346093745,0.0010622000828125,1,5
-4.785704382812503e-05,0.000780383280234375,-4.6255390156249996e-05,-0.00011823845453125004,0.0014383913355234376,-0.0019578832140625,1,5
7.975273085937502e-05,0.001100012500546875,0.000630442167265625,0.00257669044390625,0.0007047429328124999,-0.0007668570778906251,1,5
0.000495066469296875,0.00085650905671875,0.000691974778828125,0.0019536992321875,-0.0006336932736718749,0.001992088471796875,1,5
0.00043799186015625003,0.0006974647701875,-0.0002029398035937501,-0.00178139533578125,0.00034992172867187506,0.001952465524453125,1,5
-0.0030086814539843744,0.008838453589062501,-0.022391575195625,-0.03694822812500001,-0.101484669375,0.15968421484375,1,4
0.00423327007875,-0.009707932466796874,-0.00251795331875,-0.026439668828125002,-0.0531779409375,0.10761760390625,1,4
-6.208043070312505e-05,0.0028559752199218747,0.0018891250390625,-0.012676499929374998,-0.0194881643265625,0.048609270234375,1,4
0.0002248555365625,-0.00045175201851562494,-0.0005799563564843751,-0.0034729881015624995,-0.0026620295829765626,0.0140892244409375,1,4
0.00023827669460937506,-0.0005078290169531251,0.0001622472651562499,0.0001964353106249999,0.005011210032648437,-0.00318384623875,1,4
-0.000408833473828125,0.0016656328499999999,0.00013858896492187497,0.001397570231953125,0.00521903101171875,-0.006933257049921875,1,4
0.000154769615703125,-0.00022793507843749995,-0.0005167085809375,0.0015603518019531252,0.0026148907914062495,-0.005145304025703125,1,4
0.00016865351015625003,-0.00068137777265625,-0.0011086747986718752,0.0011199310732031252,0.00177449944453125,-0.004396496594242187,1,4
-1.3640401562499952e-05,0.00042200246578124993,-0.0005243092697656249,0.0007083839872656249,0.00047472333460937496,-0.0010392629829140626,1,4
8.413907945312504e-05,-0.000382310223359375,0.00044893610062499996,-0.0004237267201562501,0.000266429874765625,3.5638109140625004e-05,1,4
-0.000398012959296875,0.0008748470805000001,3.305168632812501e-05,-0.0005897743986484374,-9.682524046874993e-05,8.197994867187498e-05,1,4
0.0239213946484375,-0.0034067463640625,-0.00581931761875,0.107905384140625,-0.019891984872656247,0.22827547546875,1,6
0.008603472900468749,-0.004052936052968749,0.00281080699609375,0.0586788053125,-0.01082933103046875,0.092690793421875,1,6
0.00030110396066406245,0.000245719794375,-0.0003457701183984375,0.0183659895546875,-0.00273320629109375,0.015949302918749998,1,6
0.0008427955105859374,-0.000226547584921875,-0.0008016143998046876,-0.0013187692890624999,-0.00213589828796875,-0.015354222221874998,1,6
-8.946514460937498e-05,-0.00048770007523437503,-0.000697024592421875,-0.00666047540625,0.0019095756346874998,-0.018838242328125,1,6
0.00027313544624218755,-0.000354712346171875,0.0004359446553906249,-0.00624378707890625,-0.00084819921375,-0.014012100226562497,1,6
0.0004436041635390624,0.000594978146015625,0.00032084070960937503,-0.0034434553229687505,0.00029871704453125,-0.007225861795,1,6
-0.0003165971911406251,-0.00011487742578124998,-0.00022097255000000002,-0.0011783142982031251,0.00233701243203125,-0.001250085250390625,1,6
0.00015261418624218747,-0.00047760729781250004,-3.1536706882812516e-05,-0.000133578272890625,0.00043082068359375,0.00010485021179687504,1,6
-0.0003757125165703125,0.00018333157773437503,0.0008867960777265624,1.4971481687499989e-05,0.00102358915828125,0.0004361164359375,1,6
0.0002627791205625,0.000311546877265625,-0.0002323101709453125,-0.000325957644875,-0.0009221247151562498,-0.0002938190310156251,1,6
0.0009160230789999999,-0.00023681495367187502,0.00012349835092968753,0.0003070371780078125,0.00116175865625,0.000920603522421875,1,6
0.006839264249921876,0.018458520953124998,-0.03212257265546875,-0.19210961796875,0.017038887525781247,-0.29840437265624997,1,4
-0.002686605647421875,-0.0013554289265625,0.012025903196875,-0.121829776640625,0.02662910859375,-0.18176708351562498,1,4
-0.0016364151355468752,0.0043045278570312505,0.006247706118203125,-0.05504380984375,0.01730605586875,-0.0746508630546875,1,4
-0.001026740022109375,0.005966598428593749,-7.234261367187518e-05,-0.012134417971093749,0.00493599354625,-0.007126309490624998,1,4
-0.00015404614601562501,0.0005323057684375,-0.0006362075625781249,0.00569601866171875,0.0014878318790624997,0.016163427095312502,1,4
-0.000291781811875,0.001999351059375,0.0007755026025781248,0.0088624167578125,-0.001091708808125,0.013070907732421875,1,4
-0.00037562101585937504,0.0036107421820312496,-0.0004070745201562499,0.00735886068015625,-0.0016292514217968752,0.011832120365234374,1,4
6.814893789062503e-05,-2.788801015624992e-06,-0.0005125488453125002,0.0033260294671875,0.0004057898844578125,0.007272756700312501,1,4
-0.0004175876109375,0.0015855998208593749,-0.000228242264296875,0.00053993130946875,-0.0008919766346828127,0.0012809709713281251,1,4
4.2492522187499966e-05,0.0006632811228515626,-0.0007256723460156249,-0.0004525037855312501,-0.00030976103984375013,0.0016743899278906247,1,4
-6.5554711171875e-05,0.0015152427637109374,-0.0012875793884375001,-0.000487290052875,0.000546631254375,-0.0018233251603125,1,4
-0.00068300359578125,0.0025561924260156252,-0.0003917406471875001,-0.00245586346365625,-0.00711978034484375,-0.0005752384257812499,1,4
-0.070853576203125,0.050545836984374995,-0.2945620638046875,0.10321545720312499,0.096028832453125,0.162454546859375,1,6
-0.0743668791125,0.014390462323515625,-0.13470500248437497,-0.088084400734375,0.084455755859375,0.104960388484375,1,6
-0.0038043883132812496,-0.00044423499835937505,-0.003943414750000001,-0.12443488960156251,0.036120930453125005,0.058629778796875004,1,6
0.0030359776804687495,0.0053550165531249996,0.026086475703125,-0.10438148989843751,0.0133837297015625,0.0326128209859375,1,6
0.009955903033593751,0.0094176567125,0.041281231938281246,-0.02683297634140625,0.0004358149082031254,0.004637477878124999,1,6
0.0046321571953125,-0.0004978119546874999,4.087939609374988e-05,0.0106089429265625,-0.006185502443359375,-0.007717009578125,1,6
0.0021676399687499998,-0.002948366151171875,-0.00883673312421875,0.018838972346093753,-0.00602621045625,-0.007953736993749998,1,6
-0.00016690200281250004,-0.0004836713395312501,-0.0039059849015625004,0.00733980714140625,-0.0035337842016406247,-0.009241686699609376,1,6
-0.006940363284999999,-0.005502576917265625,-0.02443346129265625,0.05390083123515625,0.001681773257734375,-0.021659927025390626,1,6
-0.02000986918453125,-0.01332131814140625,-0.056902275629375,0.0306492839984375,-2.510771875000014e-05,-0.01555904304765625,1,6
-0.0141395201359375,-0.00293958747578125,-0.0192065944921875,-0.0466758362125,-0.0033049547335937497,0.0139351272859375,1,6
-0.005656902413124999,-0.002909724664062501,0.014372445171093748,0.102109309515625,-0.030362936695312502,-0.04752693881015625,1,1
-0.0008929384007812498,0.012170308570312503,0.006602465290624998,0.03489009938515625,-0.032296727773437506,-0.0031003716874999972,1,1
0.0141532107109375,-0.0009422572796874973,0.012230158295312502,-0.016864349122656247,-0.01523519318750001,0.008178808882812492,1,1
0.009977879125000002,0.00026208927499999854,0.01756701828515625,-0.0004941932812500011,0.013937244117187508,0.013478712637187501,1,1
-0.0014540569624999994,0.00044498802343749966,0.0017742519765624998,0.0055722003828125,-0.01930323004687501,0.02196634892625,1,1
-0.010488723626562502,-0.009934646429687503,-0.0100482988,0.004347625218750002,-0.047515003093749994,0.004404908007812498,1,1
-0.007849892135156248,2.7458203124977945e-06,-0.0049096433625000005,0.017892628250000008,-0.03719638906171876,3.0296703125001767e-05,1,1
0.0036780195085937516,0.010613186460937498,-0.006360914921875002,-0.014931757101562497,0.006832116485156249,0.011144838929687498,1,1
0.0006065749625000013,-0.0008946710703125055,-0.036609684898437495,-0.18841573977343748,0.051726042359375,0.007491084640625003,1,1
0.014323619734375001,-0.010419715015624997,-0.007618925343750004,-0.09653669432031249,0.0023641033281250074,-0.036912012921875,1,1
0.0012737123828125015,-0.004456940050781254,-0.00458618849375,-0.042125919921875005,0.06977188356250001,-0.007999713085937492,1,1
-0.0092152775234375,0.012185190871093755,-0.0004337399703125003,0.004103684375,0.07730989906250002,0.028120916898437494,1,1
-0.0011601202765624992,0.011022864765625001,0.018042906499999997,0.01828104475000001,-0.0002464460156249948,-0.002076125914062499,1,1
0.014635655301562502,0.004115730265624999,0.019783260984375002,0.01652145709375,0.009758821148437496,-0.0046642854296875,1,1
0.009878902896093748,-0.006969145570312498,0.005901545546875,0.017630574554687493,-0.01781368853906249,0.0174654642109375,1,1
-0.012991132439843756,-0.008220275351562497,-0.005101399570312498,0.0461272690078125,-0.08544134385937499,0.0015905826328125004,1,1
-0.0118457920546875,-0.0023104511562500006,-0.0140162761484375,0.031736908471875006,-0.039718331828125,0.007938272070312499,1,1
0.001292414109375,0.007387897218750002,-0.006488814140625002,0.00154649149218751,-0.0027168758593750027,0.018299863062499998,1,1
-0.0009315403671875016,-0.0005680336235156305,-0.006542483554687499,-0.03307433659687501,-0.03525636328125,-0.0066612564609375025,1,1
0.0031507220703124988,-0.012130480929765625,-0.014027973480468747,-0.03952900357812501,0.01203490343749998,-0.03379895997421875,1,1
0.0016596775781249958,-0.008324560985937507,-0.004282313496093745,-0.0047560391953124954,0.09072581622656249,-0.018431810880468757,1,1
-0.025015971660156254,-0.0170343091953125,-0.0015173838437499984,0.2432375720546875,-0.06655794314843749,-0.09009334334375,1,1
0.003888409975000005,0.01637747438203125,0.0323892826828125,0.22139394660156253,-0.07117384014062499,-0.046115593171875004,1,1
0.02486851349921875,0.02331765948984375,0.014981345174999999,-0.04051800914062499,0.018894339960937506,0.032289495879687505,1,1
0.010512972532812501,-0.0032337205250000008,0.0087447820390625,-0.0626324713359375,0.02497231396875,0.03456847803593751,1,1
-0.007735629827343748,-0.00015927678671874904,0.0073945814765625,-0.030492502671874998,-0.0325605400703125,0.0240942750703125,1,1
0.0001821432765625004,-0.00328331604453125,-0.0073161166796874965,0.005050844212499989,-0.045275712554687514,0.023384317601562503,1,1
-0.002216291598437498,-0.0007706899921875038,-0.007101315843750001,0.020315223759375008,0.006046241062499992,0.024304741171874998,1,1
0.0018530308281250012,0.019804259421874998,0.005210046671874998,0.02025194092890624,-0.006303349625000003,-0.006263657765625003,1,1
0.005824681367187503,0.007839279523437498,-0.00550470321875,0.00259007353046874,-0.023946187335937494,-0.02764582937421875,1,1
0.006756121372656252,-0.019667652773437502,-0.010178947898437502,-0.014999249070312505,0.003265308507812495,-0.02229878246796875,1,1
0.0020914711695312477,-0.011425808960937497,-0.0041990538671875,-0.004364959687500005,0.063117036140625,-0.016091284703125,1,1
-0.011858055906249998,0.0048595950390624984,0.0008082644687500023,-0.023404832101562495,0.05233528012499999,-0.0012949069218750001,1,1
-0.008983266906249997,0.01305783885390625,0.006869085351562503,-0.031688061390624994,0.001077328984374992,0.006857339679687505,1,1
-0.0058918390039062515,-0.0191586432421875,-0.048603477024218744,-0.3901976797265625,0.08639867777343752,0.0073969059609375,1,1
-0.011346365503906247,0.0008161548359375027,0.0015891768351562491,-0.184811084765625,0.007853753637499997,0.0157574571875,1,1
-0.0113542294296875,0.005735884429687502,0.009540791070312497,-0.012908233500000008,-0.015527672323437509,-0.0004474297890625003,1,1
0.0007297735937499992,0.0128549913484375,-0.004608398484375001,0.044385370109375,-0.024612574054687503,0.017326645992187497,1,1
0.0017742310445312513,0.009401566567187498,-0.011616042195312499,0.053215894421875,-0.016326730742187504,0.018732252031250004,1,1
0.003946878302343748,0.0048161944296874985,-0.003942176867187501,0.060191381234374994,-0.0073371914687500005,-0.00983435890625,1,1
0.003937218335937499,-0.013415448125000002,0.0011665670625000003,-0.012885366750000009,-0.008199802296875,-0.03533406671875001,1,1
-0.0008795143593749999,-0.0135441619765625,-0.0030098918062500023,-0.0276204819765625,0.05072825675,-0.027832271648437504,1,1
-0.007976267679687498,0.012996597167968749,0.0007834143632812493,-0.003674951411718752,0.050429564843750004,0.009040880374999997,1,1
-0.007576989754687499,0.008722268566406245,0.00419191704453125,-0.015313831567968748,-0.0175845616953125,0.0097763487578125,1,1
0.018146124596874993,-0.0017017487101562492,0.006270250671875,-0.008830168203124995,0.025773474476562495,0.002570569156249994,1,1
0.011045228640624996,-0.0060596779210937545,-2.766397656250169e-05,-0.004975384230468758,0.01976928265624999,-0.0005152894375000001,1,1
-0.018001698179687498,-0.011412823877343752,0.0031751011296874995,-0.015638428957031245,-0.041564136953125,0.012462220924999995,1,1
-0.009796440703125,-0.002563095750781251,0.003446065387499999,0.018481792640625,-0.02557363248437501,0.008777434893750005,1,1
0.013789878588281249,0.020388665696875,-0.03159139348437501,-0.11326035418437501,-0.02607883633828125,0.005703430195312503,1,3
-0.014513436739843745,0.007187424564062501,-0.011561974140624995,0.0282685906484375,-0.010998475947656253,0.03256944228906249,1,3
-0.022444702046875,0.0363409121640625,0.008428588384375,0.18053364704687502,-0.0806087052578125,-0.04040093999999999,1,3
0.027340477992187494,0.004805231601562502,-0.020206088330468747,-0.195345257375,0.074847934453125,0.015979135468749996,1,3
0.027380487539062498,-0.024960846937499996,-0.005108517679687501,-0.057676090015624994,-0.01619762296875,-0.023657363710937497,1,3
-0.0034213767265625005,0.011712038635937498,-0.012530036015625,0.3871148583125,-0.20355863468750002,-0.03593696832031249,1,3
-0.0175549980703125,0.016975513089062498,-0.01819922181796875,0.30503428789062503,-0.1059868446171875,0.04873904871093751,1,3
-0.024054199109375,-0.026558037549999997,0.019867683382812498,0.48432267203125,-0.16782444429687499,-0.0845139978671875,1,2
-0.016527940581250004,-0.0031169407531249993,0.0020770326015624985,0.3069577111171875,-0.11715218296875,-0.07587408548437499,1,2
0.002418066699999999,-0.011766989671874999,-0.003958927687500003,0.4794723041171875,-0.208395575390625,-0.09993095074953126,1,2
0.006617147718750001,-0.004769985453125,0.01521639217734375,0.4016941691015625,-0.16647260460937502,-0.062082335093281246,1,2
-0.006201532421874999,0.009285783749999998,0.0109427644109375,-0.1119185777734375,0.0477534537421875,0.008379805945312499,1,2
-0.006911012218750001,-0.0069054437265625,-0.0017598259929687487,0.082317322578125,-0.03846983994531249,-0.004092629531250003,1,2
0.0045029482096875005,0.0036381829703125016,-0.003256597789062502,-0.008048790546874993,-0.01505350341406249,0.020629930507812498,1,2
-0.0007639653059375016,0.0029786427179687514,-0.015029323101562499,-0.42943924171875003,0.1663834830703125,0.07104290953125,1,2
-0.0009870205367187492,-0.00908617421328125,-0.006168726685937501,-0.2975478881484375,0.11520002974999999,0.042848201273437504,1,2
-0.012276019882812503,-0.030290019421875,0.018368409332031252,0.407738033578125,-0.13377954685937501,-0.087764758421875,1,2
-0.0020555391640625018,-0.0082222553203125,-0.0015741581484374988,0.22597863425,-0.09861906573437502,-0.05547857757031251,1,2
-0.0153732178703125,0.012880683764062496,0.0050566032187500005,0.541859586453125,-0.2229434226171875,-0.10147145326796875,1,2
0.0031002234031249987,0.0018443753234375004,0.005255697812499998,0.38527379225781244,-0.16285741718750002,-0.05887756696328125,1,2
-0.005179512999999997,0.0008553935359375004,0.012623598268750003,-0.16933373594531248,0.07413329459375,-0.0047857332109375005,1,2
-0.018162942921875,0.0075292037343750035,0.014039212964062495,0.09814206096875,-0.049603616323437495,-0.0005014620078125018,1,2
-0.0041469485468749985,-0.013748678140624998,-0.002854426976562498,-0.03378279442187501,-0.0017442818703124914,0.056208535406249996,1,2
0.0004132227500000009,-0.006394518460937498,-0.0094381471875,-0.40187041703125,0.17603115921875,0.056135756820312493,1,2
0.0006399432656250016,0.00650852621875,-0.004100283804687502,-0.27557398057031246,0.10220948623437498,0.030545994054687498,1,2
-0.020120952562500002,-0.022572643265625,0.029946647750000003,0.389820867109375,-0.166002930625,-0.063373654296875,1,2
-0.01065185078125,-0.0025262782343749997,9.944921093750156e-05,0.236652839671875,-0.10811032539062501,-0.0497643188203125,1,2
-0.002716688717187504,0.013772972703125,0.0011643432031250003,0.5243354562343749,-0.2711859803203125,-0.08892293100781251,1,2
0.001615590252343748,0.017818752250000004,0.0004704354140624995,0.31003388492187495,-0.1542512244609375,-0.03264479410937501,1,2
-0.008100323859375001,0.009054203507812499,0.0048084434375000006,-0.1711451117890625,0.10430577390624998,0.018496148937500005,1,2
-0.019368594735156244,-0.0019510530937500007,0.01844744609375,0.145342480140625,-0.049972605234374995,-0.025067783679687504,1,2
-0.01297324456328125,-0.005063082623437499,0.0019149852031250009,-0.007999585015625005,0.007125802054687495,0.029126811523437497,1,2
-0.003619530250781251,-0.006756264326562498,-0.0004613127109374996,-0.40597731592968755,0.1525381242421875,0.0552363646875,1,2
0.010711603949999999,-0.0150386842109375,0.013086399786875001,-0.302284370796875,0.101328698359375,0.039478544375,1,2
-0.014179884257812504,0.025080843218750003,0.04809640086796875,0.507660247890625,-0.182211421953125,-0.06414962170234376,1,3
0.01571319853125,-0.004060461078124999,0.007242147687499998,0.1747539066796875,-0.1495995784375,-0.03586774458515625,1,3
0.016201032367187507,-0.018189962140624998,-0.016859791284375,-0.4252473176171875,0.130886362578125,0.0335803529375,1,3
-0.011330925734374997,-0.0038591251796875024,-0.015056416174999998,-0.2977191967734375,0.09383117484375,0.0407428575234375,1,3
-0.009874242046875002,0.02303663398515625,-0.026762939374999996,0.14552494275781253,-0.013778912031250003,0.031113870406250008,1,3
-0.012819220742187498,-0.014771061702343751,0.001970676396874999,-0.16135706631250002,0.127142627265625,-0.008941932429687495,1,3
0.013596687632812502,-0.0036861452890625014,0.029930100975000002,0.05082792718750001,0.015237031874999986,-0.059878382812500006,1,3
0.0025827753437500014,0.025864885,0.01973658709375,0.38335814225,-0.173997888890625,-0.006423491015624998,1,3
-0.005518889021093749,0.007175531260156248,0.012499182250000003,0.226436688671875,-0.10977320474999999,-0.01079206976562501,1,3
0.025661652421875,-0.012183194444531247,0.0116985161484375,0.4283903291203125,-0.15049154471874998,-0.069503810859375,1,3
0.029316529632812498,-0.020470434210156253,-0.01553652703125,-0.026282883942187505,-0.03207967278124997,0.023831291523437503,1,3
0.007493743640625,-0.005765942703125,-0.014936332003906249,-0.4142120705625,0.136500186609375,0.02492102042968751,1,3
-0.003632438507812497,-0.002906679926562499,0.0019924501828124993,-0.08761311867187499,0.02759604485781251,-4.239062500006538e-06,1,3
-0.015198037515624999,0.008899131635937502,0.008335995030468751,-0.060960485906250014,0.0628309177796875,0.017539652414062502,1,3
-0.018883068778124998,0.0027979744687500023,0.023839985617187504,-0.149432233171875,-0.019226151718749987,-0.044635472070312494,1,3
0.012008629471874996,0.0149925278515625,0.009338812648437495,0.311891821796875,-0.20828916343749998,-0.025245950578125002,1,3
0.0017494333359375034,0.0178009027578125,-0.0181109481328125,0.38103130351562503,-0.07885317242187499,0.043993771796875,1,3
-0.0085653319703125,-0.005127107892968751,0.09735232076640625,0.1297415067421875,0.1659306581015625,-0.0880598986546875,3,5
-0.0021140283128124994,-0.00798152484375,0.014992030267109376,0.0371671661515625,0.026579064573046877,-0.014279344623437499,3,5
0.0011904558775781252,0.003361839608359375,-0.00298134929796875,-0.0010178732624999995,-0.022375771848828125,0.014930879687499999,3,5
-0.0017101692895625,-0.008113347456484375,-0.007260591290859375,0.010773467746875001,-0.040359510084374994,0.028886456428125,3,5
0.00016198569817187525,0.0018259660828125,-0.00688652603125,0.0164540204109375,-0.0249774437953125,-0.003004965439062501,3,5
0.0059466228265625,0.02339197578828125,0.0013992669609374998,-0.019351147953124998,0.013757228414062501,-0.028052468384375,3,5
0.00204314683453125,0.01782152101328125,0.014251947468046876,-0.015584636649999999,0.01788242821875,0.0019690855843749995,3,5
-0.0030287550162499998,-0.0027490752656250004,0.008164424960234375,0.004686552764062501,-0.0169767959421875,0.0169472409125,3,5
0.00038458902343749984,-0.003115857546875,-0.00495944589921875,0.0027500029218750005,-0.004186747668750001,0.011246014625,3,5
0.0018252321289062502,-0.0035167216265624994,-0.0047667815242187495,-0.0007961860703124997,0.004962233140625001,0.0038503894289062496,3,5
-0.0009568510132812497,-0.01150229258125,-0.0006157377367187506,-0.030462618062499995,0.030752888888281246,0.01842870926796875,3,5
-0.005997306903906251,-0.01094191340546875,0.025840507300781253,0.008912222420312501,0.00733533823203125,-0.0031605003484375003,3,5
-0.00242130537578125,-0.007621731995312501,0.0080353299984375,0.0602866092328125,-0.049879376603125,-0.008227340822656252,3,5
-0.0003137526970312499,0.0009072074867187502,-0.007733792696093748,0.009689481546875002,-0.0031327612125000006,0.0021050346304687497,3,5
-0.0028450666625000004,-0.00212371588359375,0.008794572678906251,-0.036709610171875004,0.00985015131953125,-0.008653467417187498,3,5
-0.0013797076475000002,-0.011321609114062499,-4.527539374999995e-05,-0.030544298164062504,-0.01112832187578125,-0.0057084948625,3,5
0.0314547395109375,0.062773184809375,0.017410078508593753,0.08440663742187499,0.098704780625,-0.19243885796875,3,5
0.0035814319554687505,0.013749548806250003,0.0018708936656250004,0.043261209671874995,0.055981131718749993,-0.1075484546875,3,5
-0.0006205418070312499,-0.005692600425234375,-0.00470918337421875,0.016749291228906248,0.0286650052421875,-0.03318019451171875,3,5
-0.0017174823121015627,-0.004401317578984375,0.002714040515234375,-0.01321410723984375,0.014402630926632812,0.0005146086085937501,3,5
-0.0007533374568671875,0.00062182853921875,0.0031863082839843748,0.0209297181953125,-0.011959287827273438,0.00209374111484375,3,5
0.002204451705625,0.005667897369460938,0.00096022499953125,0.022157945628124995,-0.012438399496874999,0.0068547829554687495,3,5
0.001346026641953125,0.0037120191651640625,0.0021723901859687497,-0.015010593209609376,0.0013997921375,0.011208155769531249,3,5
-0.0015404106075,-0.003363380524453125,0.002359096879015625,-0.006733850498281251,-0.0019470291249999998,0.007794752300937501,3,5
-0.000903789106953125,-0.0032334230690625005,0.0003622114923125001,-0.0018732249707031248,-0.00072609795,-0.0011194893442187498,3,5
0.00052276631796875,0.002370867975,0.000882145646375,0.00489305428359375,-0.0018541447171875,-0.00298009058265625,3,5
-3.631649367187502e-05,0.0008398133581249999,-0.0008481305188281249,0.002356790521640625,-0.0020861460800781248,0.0004557885953125,3,5
-0.0005573217935156251,-0.0012792120079687498,-0.00118415887640625,-0.003817298302578125,-0.0007265908200703125,0.000933345374140625,3,5
0.000402487110390625,0.00036251789453125,0.0006749539205234375,-0.00218958425859375,0.0017429060975859376,-0.0018425516589062499,3,5
0.0007864736815625001,0.00250384325390625,0.0011324962369515625,-0.0022455606828125,0.001319234173671875,-0.00047635268695312506,3,5
0.0010095388925,0.00318398601328125,-0.008008650042946874,-0.024895675133593753,0.002257105911328125,-0.005737228634374999,3,5
0.009907916824999998,0.0241044796203125,0.025188742750000003,-0.0037268636625000006,-0.050587128991406244,0.130222696953125,3,4
-0.003173777798671875,-0.023960443396875003,-0.016097000298437504,-0.01376090725859375,-0.023979062659804685,0.08858354046875,3,4
-0.0006546033924218751,0.008060942199921876,0.00825748514140625,-0.01145224852109375,-0.013391584362148436,0.0448610697140625,3,4
-0.0013171383740625,0.002962309238382813,0.00606914441640625,-0.0068170476382812505,-0.0073381084046875,0.01573439682242187,3,4
-0.001446624690625,0.005776584006296093,0.0053981806148437495,-0.0016217312996875,0.001911654950078125,-0.005591816594765625,3,4
-0.0035150595415624998,0.014139534685022657,0.00985620880234375,0.005406795995546875,0.015915321336015625,-0.0288491068125,3,4
-0.0380234697625,0.087880567875,0.052777177015624996,0.013273923070234376,0.0704849541484375,-0.1342906625625,3,4
-0.09458485460937499,0.17899928734374998,0.07852099842187499,0.00526689714375,0.057691560023437505,-0.0952056291015625,3,4
-0.0698781184375,0.10029727730703125,0.0462025850265625,-0.007019557284375001,-0.0341551545625,0.0803646982421875,3,4
-0.00947528622109375,-0.0031676227396093748,0.01447853026171875,-0.0081437119953125,-0.059209843960937494,0.102139972109375,3,4
-0.000530802889765625,-0.0008207259880468747,0.001668906246875,-0.0079132010271875,-0.037673705718750006,0.0588290428359375,3,4
-0.004855331030390625,0.0033891273037187494,0.004650999671093749,-0.004317478913125,-0.01462338624921875,0.024236334159374998,3,4
0.02039694106796875,-0.0505427437265625,-0.05283147266406251,-0.08261980592031251,0.0670385868359375,-0.16067220242187502,3,4
-5.1184236484374905e-05,0.019474403723203124,-0.014441423146250002,-0.073233126953125,0.07157331540625,-0.10954188414062502,3,4
-0.0019971992187499997,0.012157405839609375,0.002727496847421875,-0.04403595486460938,0.035289354,-0.0351200495125,3,4
-0.00014438870804687502,0.000738784008125,0.0018922403780468752,-0.022166355223984375,0.010746676641406251,0.0034864254984375005,3,4
-0.00034649569640625,0.0009332568634375001,0.0039700105867187495,-0.007598653621875,0.0021707301461718746,0.011325690865625002,3,4
-0.0006051836229687501,0.001316990342265625,0.003948288468515625,0.00291627363203125,-0.006082259144453125,0.012196095435859377,3,4
-0.00039549895328125,-0.0006780187991796874,8.982754554687504e-05,0.00547506863828125,-0.008296609636484376,0.008947844817890627,3,4
0.0008448268346875,-0.00033584927957031253,-0.005333019401953125,0.00623716437421875,-0.011852655096640626,0.0040381581640625,3,4
0.001912734773828125,-0.002931767805703125,-0.011710518962578124,0.00354728202578125,-0.007794970299218751,0.00206087908203125,3,4
0.000397385972578125,-0.0017490910799999996,-0.00400933585234375,-0.0013845023937499997,0.00687624398046875,-0.00219498895609375,3,4
-0.0007856201195859374,0.001758403031796875,0.002640850761328125,-0.00122304436953125,0.00789324941015625,-0.002741539108,3,4
6.619478197656253e-05,0.00032430298774218736,0.0010332847014140624,-0.0006048494977343751,0.00242186604465625,-0.0001333783425390625,3,4
2.8768172343750036e-05,-0.0004341134227265625,0.0012344071682109374,-0.00109215377,0.002503910203953125,-0.00097502020509375,3,4
-0.00070259792828125,0.0015351717278125,0.0035387422242187496,0.0005443313695546875,0.0009668868780468749,-0.0031713817536796873,3,4
-0.00298872676640625,-0.0018726403359375005,0.0013715928999999997,0.006483955909375,-0.052213640920171875,0.28220261507812505,3,6
-0.0037766573585937503,0.0035495200421875005,0.0023563126789062504,0.019589385878125,-0.0028539396303281245,0.16478476046874999,3,6
-0.0009177737553125,-0.0036729100984062507,0.005453179299453125,0.0295684326953125,0.00636046893046875,0.063470078525,3,6
0.0006924794900624999,-0.0008554423549687498,0.000155683849765625,0.0176334737609375,0.005358329699140626,0.0066923274585937486,3,6
0.002393564929203125,0.00011858130124999997,-0.00029603757343750015,0.008792745877343749,0.003302229318671875,-0.011939786942968749,3,6
0.003409708692421875,0.0009565501978906248,-0.0010202923495312498,0.00500103846640625,0.0008426895992187499,-0.01649970596953125,3,6
-0.0007189312592265625,0.0012717558332031248,-0.002146615034453125,0.00093085915703125,0.00156740990078125,-0.013228373730625,3,6
-0.0014037075084453125,-0.0014056695967187502,0.0020984962444531253,-0.0035866788406250004,0.001057938786875,-0.00250430228375,3,6
0.002103367205867188,-0.0016512354164062498,0.0020027498515625,-0.00198007404140625,0.0010495626735937502,-0.0003204869743750001,3,6
0.0023172565628984372,0.00074090150453125,-0.0015562228625000001,0.007072684329687499,-0.0060519416628125,-0.00022513684039062506,3,6
0.00498049411875,0.00340723163109375,-0.006053034814921875,0.0028257137484375,-0.0047372639159375,0.0005877524722656249,3,6
0.00241919240234375,0.00158551636203125,-0.0023873154336718745,-0.005520934956796875,0.0049439257046875,-0.002440230845546875,3,6
-0.004340193008593751,0.00112863835265625,0.0012495633742187501,-0.0079006177303125,-0.00038656789843749995,-0.0038252289624999994,3,6
0.0019093674360156248,0.0017923318999999997,-0.00362570964453125,-0.000861777880359375,0.006917690240625,0.004159917735390625,3,6
0.0009666606718749997,-0.006478690613640626,0.0062598373453125,0.06349854289062501,0.007034478821093749,0.1823709546875,3,6
-0.007779867646874999,0.002264829999640625,0.0035140189112499998,0.045486694687499996,0.00196318597421875,0.086330166921875,3,6
-0.001111672219609375,-0.00052120166046875,0.0005839388792187501,0.02235994692140625,-0.0006647565330234375,0.022339938882734375,3,6
-0.001109881119765625,-2.12988301171875e-05,-0.000530140964453125,0.006139137807343749,-0.0012177251134921877,-0.005081705140703125,3,6
-0.00121481456515625,-0.0005736544825390625,0.001499024720703125,-0.002420315790625,-0.001370363420078125,-0.011897096546875,3,6
-0.0010047227846875,-0.00028416271187500005,0.0012859478261718748,-0.00375526173484375,-0.001176316232578125,-0.00959342916984375,3,6
-0.00028504048128125,0.00089433673234375,-0.0006934018199218749,-0.001301147808828125,-0.00063043658125,-0.005717214934687499,3,6
2.7878764968749992e-05,-0.000373557797890625,-0.0003268758781484376,-0.00085053665703125,0.00024639677937499994,-0.0027773848992187497,3,6
-0.000473070798203125,-0.0005601465389999999,0.00029811804450781247,-0.0009636891303125002,-6.639523195312498e-05,-0.0007474177348437502,3,6
0.002184468888125,0.0012838490831875,-0.00178892513140625,0.004041421081640625,-0.006510124028515626,0.0015390519220859376,3,6
0.00303067252546875,0.0015003688615625001,-0.00358436665515625,0.0020100220953125003,-0.0022337376325000003,-0.0002031373704140625,3,6
-0.0010187704155468751,0.00022108171476562503,0.000249040567578125,-0.004180507180468749,0.008188171051875002,-0.001623495098515625,3,6
-0.00246175597171875,-0.0006473373190703125,0.00234646924109375,-0.00302742352734375,0.005600360322656249,0.0017777186788906249,3,6
-0.0003384014416875,-0.0006866300050859375,0.000837712082734375,0.0001511342351562501,-0.00089551206875,0.0008264971922500001,3,6
0.0006580457269062499,-7.942929695312499e-05,-0.00017472198343749997,0.0026855339351562497,-0.0028185859828906245,-0.0006779250734375,3,6
-0.000686981374765625,0.00057724780421875,-0.001474088791015625,0.0007357446843749999,-0.0012153274633593747,0.0006724333804687501,3,6
0.012070871054687498,-0.0032009646265624987,-0.021733114466406248,0.09709890273437498,-0.04788152382812501,-0.028679391885937495,3,1
0.003917411225,0.007333214798437498,-0.0076756297265624975,-0.063421304921875,-0.020810312867187507,0.0344514036140625,3,1
-0.0061048012046874996,-0.0043790196953124964,-0.003463186703125001,-0.034914313609375,0.004451084906249996,-0.0003159310859374969,3,1
-0.0002592107734375,0.008314678043750003,-0.0128334062421875,-0.027221036062500002,0.008523360825781253,0.0005981585515624967,3,1
0.00019423310859375056,-0.0014065903703125021,-0.0014858552703125006,-0.02718989846875,0.020814961067968752,0.024195508746875004,3,1
-0.0009682408835937489,-0.008381871023437496,0.007080044643749998,0.005052948554687504,0.009874387632812507,-0.006832369242187497,3,1
0.0024697808203125032,-0.0075048329296875,-0.0008048668750000013,-0.008951304578125006,0.006920629773437494,-0.015498546921874998,3,1
0.0034943607265624996,-0.005625907867187498,0.008864017258203124,-0.022383457659374998,0.015185010442187499,0.001034545851562499,3,1
-0.002173123528906251,0.00016921080468750016,0.007357725562109376,0.02061743855937501,0.0023672815046874886,-0.007263584747656249,3,1
-0.008275269919531246,-0.007890081446874999,0.0023858120877343746,-0.0189529728046875,0.021399085929687506,-0.0027837927179687506,3,1
-0.007814052632812499,-0.002099759201562502,0.011687983901015622,-0.0013142206562500001,-0.005557724740625004,-0.004401090665624998,3,1
-0.006207957257812497,0.0061455280343749984,-0.000426514965624996,0.026053419859375,-0.03172733788125,-0.0046245926484375,3,1
-0.00394810510703125,-0.0006187834374999975,-0.010136956301562496,-0.04723723428125,-0.005825642476562498,0.021227412632812505,3,1
-0.0014117216226562524,0.002757862546875,0.006357959664062501,-0.013071337523437497,-0.007796439468750003,-0.0017762767031249977,3,1
0.003326604150781251,0.011822165820312501,0.004446761257812502,-0.0024805240546875032,0.004868475312499997,-0.011638489773437503,3,1
0.004553146423437503,0.018288982390625,0.001616317292187499,0.004498028757812496,0.0163233607578125,-0.0031786898125000006,3,1
-0.004653209890625,-0.0194399994765625,-0.013842597032031249,-0.19738556032812504,0.055233251859375,0.0326582141328125,3,1
-0.0121612068359375,0.004093689692968746,0.00826666198828125,-0.12587588085156248,0.011819560781250016,0.0527617502765625,3,1
-0.0043569903125,-0.0011345663382812503,0.0019610544648437514,-0.007309550289062506,0.011892857437500001,0.008967598495312507,3,1
0.014492596984375,-0.0006782251953124999,-0.011288168679687502,-0.007760939617187506,-0.0025383945390624984,-0.0414891098984375,3,1
0.009112558984375,-0.0059533618906250025,-0.012060096485937501,-0.028479343187499995,0.003672720757812501,-0.022446242343750002,3,1
-0.012122265343749996,-0.006893365031249999,-0.004267885626562503,-0.04712000978125001,0.018288323827343758,0.004427673335937503,3,1
-0.011144347265625,0.006490181679687499,0.01766746369375,0.0043518114062499995,0.012328577397656243,-0.006969114109374998,3,1
0.0007964887328125014,0.020847624296875002,0.03397995564882812,0.03201147323437499,-0.02056972625132813,0.0035972024453124994,3,1
0.018816485460156254,-0.0032465451437499976,-0.005665908220859377,0.002968450796875001,-0.026461694712265622,0.036830000421874995,3,1
0.012994786399218748,-0.0198111049796875,-0.02319881486890625,-0.008467044484374998,0.023791666554687507,0.020619523992187493,3,1
-0.006616690375000001,-0.01743821363890625,-0.0007553655031250013,0.019340008546875002,0.005475106125000002,-0.0033813555015625033,3,1
-0.015509376187499998,-0.009727849006093747,-0.0032933021484375003,-0.02022578551328125,-0.0051535790156250014,-0.0018127310875000018,3,1
-0.009438866140625002,0.0115787812109375,-0.00199865971328125,0.010055312932031248,-0.002972190176562497,-0.0167263882109375,3,1
-0.0008085934062500005,0.0116879090078125,-0.0023566679218750015,0.053544333835937506,-0.014071804481249997,-0.0033046352031249997,3,1
-0.0026233154305078093,0.012449810062500004,-0.001502461796875,-0.00029285984374999297,0.00014470307031250185,-0.006856310624999998,3,1
-0.016924356453125,0.004421885710937501,0.0008911883515624983,-0.32839019374218753,0.14660259305468748,0.0944803864609375,3,3
-0.003610148640624998,-0.0189092554140625,0.002985233742187502,-0.445367924875,0.15973014891328124,0.0867178376015625,3,3
0.0255123469609375,-0.02134875810234375,0.034826214960937504,-0.5281343785703125,0.12635920412421875,0.020861323281250004,3,3
-0.005332276351562498,0.010850249155468748,0.01832085998828125,-0.081728326015625,-0.03460921264843749,-0.017134054210937506,3,3
-0.01411546721875,0.0086111145859375,-0.04371399266796875,-0.08230576749218749,0.030946830468750013,0.0358116407109375,3,3
-0.0028778417421875023,0.002504676578125002,-0.0059816840156250006,-0.03410007625781248,0.030653438593750013,-0.0123387730234375,3,3
0.007386179023437503,-0.0017134048593750013,0.019032147367187502,0.46253283959375,-0.13476401398437501,-0.06059189854687499,3,3
0.022445111625,-0.01517724895,-0.0038518828828125002,0.470205176796875,-0.09443344006250001,-0.04169659948437499,3,3
0.004054438171875,-0.01336624997421875,-0.010817650327343753,-0.5550091846875,0.120168536625,0.04443960020625,3,3
0.026870034109374996,-0.0095273796015625,-0.006780106085156251,-0.39073515765625005,0.1539050190390625,0.03389967026562499,3,3
0.012106326718750001,0.016247331304687508,0.007089221134375,-0.6377363132812499,0.128821836453125,0.025995732507812494,3,3
0.0008638244843750019,0.008607974484374998,0.011634042641778123,-0.17434042375000003,-0.012909610531250008,0.005692309835937496,3,3
-0.021253820625000003,-0.0097077618125,-0.008507778211346876,-0.07335326749999999,0.059979586764843745,0.03079457905078125,3,3
-0.023206771968749998,0.002501515007812501,-0.037082224437500005,-0.04855832307812502,0.02290057723359375,0.0005208486523437528,3,3
0.017976548328125,0.008936178328124999,-0.0027407043117187464,0.4522692499765625,-0.1285068364375,-0.023847600187499998,3,3
0.016594512914062505,-0.028946221132812498,0.0015897005179687498,-0.011981136398437503,0.01957210274296875,0.05911978983593749,3,3
0.032228457175,0.0018067283031250013,0.0173186849375,-0.150158095375,0.06442603648804687,0.011854538289062501,3,3
0.024870595078125002,0.0178474118359375,0.0004946431921875013,-0.58776450359375,0.10121875086304687,0.023123396734375,3,3
-0.03384144828125,0.01829542515390625,0.001249398334375004,-0.301245508671875,0.07228185678906249,0.0263261048203125,3,3
-0.020809977018750002,-0.0030058351507812504,0.00012223946249999978,-0.010033713664062506,-0.0075919225390625004,0.083585746328125,3,3
0.0104024817859375,-0.024434590859374994,-0.012967982843749996,0.02710806024218748,-0.04333289537578126,0.021651820468750003,3,3
0.0035515894296874947,0.013726345484374996,0.0129398078828125,0.39551613804687497,-0.09547703638359376,-0.0712841437265625,3,3
-0.00010760140625000122,-0.004500666578125003,-0.0431129653984375,-0.42948823203125,0.143322065375,0.100843425453125,3,3
-0.045080179975781245,-0.0479796245390625,0.010498133828125,0.2933040926773437,-0.0829949017421875,-0.07095174828125,3,2
-0.012226197625,-0.00854819221875,-0.0025778807546875003,0.10337983920078125,-0.038404040625,-0.060410527502343755,3,2
0.008748889182031252,-0.0026933239843749996,0.006919690081249999,0.320056214234375,-0.0728507477578125,-0.11242317978359376,3,2
0.026185661460937502,0.0016241786015624992,0.0188102681953125,0.4299567917421875,-0.13686745215625,-0.0778921238671875,3,2
0.009973860810156252,0.0029405112656249997,0.007590472671875001,-0.01957127196874999,0.005600687343749997,0.0372968710234375,3,2
-0.020140430585937497,0.009188076699218754,-0.0017233044140624997,-0.1470715105625,0.07802804501562499,0.012362519201562495,3,2
-0.0122697041640625,0.0011604943867187514,0.005430783296875001,0.1641776216875,-0.045788566765625,-0.01164657731953125,3,2
0.016843282851562502,-0.010884988591406249,-0.0106457622578125,-0.008137598515625013,0.0162138037890625,0.026271431150781246,3,2
0.016191506890625,0.010766655047656249,-0.010679124218750002,-0.380214253828125,0.09476546828124999,0.0415491454375,3,2
-0.021486709325781252,-0.04531304780624999,-0.044188075265625,0.5514488301484375,-0.16203207387499996,-0.1461081630625,3,2
-0.0031097582500000005,-0.006236981609375001,0.006494590430468748,0.38463593991406253,-0.11456540271874999,-0.11902397932031247,3,2
-0.0007469115734375,-0.0061129956046874975,0.032054332461718744,0.6467669461718749,-0.22268242380468753,-0.12036109106250001,3,2
-0.007732511409375002,0.0273368920671875,-0.0015613283828124986,0.24656144831250004,-0.0799538316015625,-0.050854598617187496,3,2
0.0011353650703125,0.014108998281249997,-0.0041617884884375,-0.15312134128125,0.055879402375,0.011583075109375002,3,2
0.009427767031250001,-0.018954952804687498,0.0054210188240625,0.163048657046875,-0.061669043796875,-0.005558988484374998,3,2
0.005203606203125,-0.026067049851562503,-0.021595399953125004,-0.20638189765624998,0.035372741015624994,0.067256640671875,3,2
0.004220322140624998,-0.007497107928906248,-0.016187691398437502,-0.420498383546875,0.1363839775,0.0575446003359375,3,2
-0.03842405436875,-0.05021414335156249,-0.0036849819843749985,0.08218300920703123,-0.012241591007812497,-0.05705556707109376,3,2
-0.0306421131875,0.0017567510828124999,0.0140057757578125,0.048301392630468745,0.009083663734375,-0.04271980641484375,3,2
-0.011899549320312501,0.0097283805125,0.0333610511015625,0.4872017023296875,-0.166211795103125,-0.128100042546875,3,2
0.0183777131328125,0.0092982634609375,0.019571012414062502,0.3194445778046875,-0.12523273781406247,-0.0722651384478125,3,2
0.021513148546874996,-0.009298639375,0.0024839954820312536,-0.06974100372656247,0.006731027151562499,0.008212303627968752,3,2
0.015637237976562496,0.0173543598828125,0.01847774256015625,0.09965984253124999,-0.029084624098437505,0.0139390977484375,3,2
-0.014084758945312501,0.022682700464062504,0.005570908359062501,-0.222048279765625,0.1087825347109375,0.06918199651093751,3,2
-0.029032308062499998,-0.020060436864843753,-0.027346564766718755,-0.444008325,0.160205897421875,0.08293944427109376,3,2
-0.0006507419320312489,-0.0207873179453125,-0.02247812791484375,0.23240643,-0.11091186979375,-0.0411781862703125,3,2
-0.013837562257812503,-0.0755108052578125,0.013185052546875003,0.14863069762500003,-0.038595063375,-0.03364014571015625,3,2
0.0033991522992187504,-0.030352567164062497,0.002410023770312501,0.007939055668750004,-0.008633489546875001,-0.0099696171484375,3,2
-0.00596958729453125,0.013775874265625002,-0.0130452796359375,0.4869650996375,-0.16131403835937502,-0.11945934621093751,3,2
-0.012793283273437499,0.0021835492343750015,0.0073111024687500005,0.3327177930703126,-0.095090164921875,-0.06790298626562499,3,2
-0.0019478651484375045,-0.0371877886953125,0.013376257912499998,-0.0726677780234375,-0.013062901234375004,0.024344704882812505,3,2
0.0168867236875,0.00013025855468750194,0.010059049822656251,0.08257486390624999,-0.09885562078906251,-0.027668019015624996,3,2
-0.01325945703125,0.02789786658125,-0.0006764139335937495,-0.27260304945312497,0.0808963105078125,0.050976918046875,3,2
-0.0149947095,0.011349456675000005,-0.014757983492187501,-0.189837843125,0.11757384411328126,0.02789643589062501,3,2
-0.007588063637890626,0.0008455803835937505,0.008801040929687497,-0.07707841957734374,0.1087685815625,-0.0695281457828125,3,5
0.0007068606710937499,-0.010898479085937501,-0.03233041468515625,-0.04590447970078125,0.04699359711171876,-0.019524807290625,3,5
-0.0009201547941406246,-0.00147327874140625,0.00555925311875,0.006193011595312501,0.013840540869531251,-0.014505497992187501,3,5
0.00086926372578125,0.0015623787179687503,0.0031472603641406246,0.01444270118671875,-0.007548506156250001,0.0029172523890624988,3,5
-0.00071125756796875,-0.0067075449140625,-0.003188390994453125,0.0432890903984375,-0.028377628710937502,0.010779300922656249,3,5
-0.00047564639257812477,0.0010950195664062498,-0.0019477958150781252,0.00050913995390625,-0.008238591639843751,0.0010736267835937498,3,5
-0.00028538646305468747,0.0008232549168749997,-0.003468609008046875,-0.039389111288046876,0.00170498153359375,0.0073963302828125,3,5
-0.0008905561086015626,-0.004816314653203125,-0.007000531328125,-0.0013770098810156248,-0.0006529216687499999,0.0009844589914062502,3,5
0.00030843234906249996,-0.00026310252789062485,0.0006788511964843746,-4.497438203124982e-05,0.007551735485156249,-0.0025174079273437497,3,5
0.001047989313984375,0.002825461284375,0.0015695483684375002,-0.004265005571093751,0.00353188840234375,-0.004758666621874999,3,5
0.00022735158890625006,0.0017884778199999999,-0.001035562284296875,-0.0007875013220312499,0.00238081473125,0.0012575943554687498,3,5
-0.0009324603634374999,-0.00153138041046875,0.0012878198861718752,0.00347747243578125,-0.00094494511328125,0.0023915520878125002,3,5
-2.5915154296874985e-05,0.0010094672754765626,-0.00176974889975,-0.000561132144609375,-0.0023649783354687502,-0.002771465348125,3,5
0.0008347053439609376,0.0009782944715703125,1.3756367515625065e-05,-0.0008497990071093751,0.001193238132734375,0.0013177193350312499,3,5
0.017192225908593747,0.0309821826234375,0.03575591098359375,0.0187398025,0.0537984214921875,-0.09805206807265625,3,5
0.0014223512062499994,0.010579825378515624,-0.03310574608671875,0.0756528037734375,-0.048558431789062495,-0.031465875843750005,3,5
-0.00444556396171875,-0.017360316394921877,0.003354195946640625,0.0159561240859375,0.0042559793203125005,0.0307817015625,3,5
0.0005197615078125,-0.0006692664976562495,-0.0013922673635156251,-0.0502256297203125,0.00811246831328125,0.004175732771093751,3,5
0.005205404918359374,0.020078695771875002,-0.00757609147890625,-0.06780775959140625,0.0052206131201562485,-0.004510354328906249,3,5
0.0013876485097656247,0.00727808675625,-0.0027534964718749994,0.007346614777343753,0.0027906301896874998,0.015955791231171877,3,5
0.0011721993460937499,0.0026789403859375,0.016645989025,0.011928341132031253,0.019729003496875,0.0018780357296093746,3,5
0.0019322608531250002,0.0028617875273437504,0.01304474856069297,0.033667624655468756,-0.014084638397812498,-0.0028577928882812494,3,5
-0.00100958071484375,-0.0002743253755468746,-0.006524516910400782,0.016985549234375,-0.01988038525984375,-0.00549483680234375,3,5
-0.0011796665882812499,-0.00036547261734374984,-0.004832566306249999,-0.04015513493125,0.007903350736406248,0.013149490096093749,3,5
-0.0004435409177343751,-0.002131542348828125,-0.0005843926992187502,0.017326175873437502,-0.0061643913203125004,0.01769895279453125,3,5
-0.0013898216788671876,-0.0055530162984375,-0.0012871787926562505,0.0127855871109375,-0.002092634049218749,-0.0018298083515625,3,5
-0.0009950955676953123,-0.003096914046875,-0.0039962766684375,-0.04022680975000001,0.009658281178593749,-0.00201687041171875,3,5
-4.8379484765625e-05,0.00021635251171874993,-0.004443334990625001,-0.0010506235328125,0.0006840169246874998,-0.0066370586140625,3,5
0.001955658625703125,0.00584911123515625,-7.192957500000002e-05,0.0023796388466406264,0.0007430914726562498,-0.0085831793828125,3,5
0.00022009721296875,0.0022816090625,-0.0003787879054687499,0.007783288902890626,-0.0007671637382812499,0.0048087690478125,3,5
-0.023342087810937502,0.04966735193203125,0.018330070484375002,0.04525999965859375,-0.09259300593750001,0.19086488960937498,3,4
-0.0068582497773437496,-0.019878497838593752,0.012997457632812499,0.015687848127421876,-0.05217065746875,0.163650989296875,3,4
-0.00128319850609375,0.000609028037109375,0.0241995633296875,0.001209601390703125,-0.045349162265625007,0.08123999546874999,3,4
-0.001858501009609375,0.0013909330140625,0.003795360880078125,-0.00195990696015625,-0.032410861294531246,0.02843961688007031,3,4
-0.00012117192945312504,-0.000588807626328125,-0.00040041280117187505,-0.0040883599625,-0.0114350090159375,2.8607387882812667e-05,3,4
6.278933890624996e-05,-0.00010516525851562498,0.0007060256984375,-0.003033872155390625,-0.0008136069175000002,-0.009244175338281249,3,4
-0.00041676500128125,0.00024239976742187504,0.0013785776335937501,-0.000391576246015625,0.0017917666460937503,-0.00799678316859375,3,4
-0.0006039253458046875,0.00102862207921875,0.001204941428125,-0.0005009873484375001,0.00406247589828125,-0.0053897919015625,3,4
1.7622820117187582e-05,-6.971349999999998e-05,0.00035907646718749995,0.00097682474453125,0.0020961557209375004,-0.00137639109078125,3,4
0.00016675717924999995,-0.001007983522734375,-0.000595504058125,0.0003546948210937501,-0.00022847436328125024,-0.00053011684375,3,4
-0.00028605791843750003,-0.00038231767351562486,-0.00103112986171875,-0.0015797235539062502,-0.0016008261437499998,-0.0026598845953124998,3,4
-0.00042210273614062485,0.0015913764062499996,-0.0010314215778125,0.005432901634218751,-0.004522269299218749,0.0005792030015625003,3,4
-0.0010651253124999978,-0.036110272570312504,-0.035365693125,-0.144178714234375,0.140542641671875,-0.2138338485125,3,4
0.02382291150605469,-0.033571790921875,0.05591717646484375,-0.1512775676171875,-0.007353405926562499,-0.0380287892078125,3,4
0.0025199801553515626,-0.026521900784375003,-0.021837651485937498,-0.0870107605890625,-0.020454914578906247,-0.0179957835984375,3,4
-0.0017351277975781252,0.0006635933875000005,-0.008835612253125,-0.028460858824218747,-0.008835499687109376,-0.036711458707812505,3,4
-0.0008218507084921873,0.012455303203125,-0.008999625704609375,0.0031339334640625,0.017742806688671876,-0.013839766284375,3,4
0.00027183996957031245,0.0066319225234375,-0.0009990511874218748,0.00822454881796875,0.0019476596230468747,0.0204714759421875,3,4
0.00015349514564062501,-0.004557625201796875,0.004446550578125,0.00559945714375,0.006175798716015625,0.009442889878906251,3,4
0.00025753319006250003,0.0015361805752343752,0.00399664764609375,0.00596340798671875,-0.0026315211515625,0.00113574486890625,3,4
-0.000294102610015625,0.00978060338640625,0.0044375946325,0.00105832822671875,0.00203890793046875,-0.0032439812248437503,3,4
-0.00043502369629687496,0.004957371675843749,0.006362010752265625,-0.0020265038303125,0.0067925708214531255,0.00394619519140625,3,4
2.4353229218749357e-06,-0.005166568015093751,0.003311932648203125,0.0016912457406249996,-0.011095616600421875,0.0016842882960937495,3,4
-0.00324158357421875,0.015356575316875001,-0.022781505879375,-0.0062104348671875005,-0.056939466521874996,-0.01151893000078125,3,4
-0.00562840518515625,0.023117404917656247,-0.0446163618140625,-0.00300750346796875,-0.0026645280609375013,-0.00994647085546875,3,4
0.0016899129070312502,-0.00840212734171875,0.0062429869281249994,0.01268624165703125,0.068240685109375,0.03901372286171875,3,4
0.008455277724218748,-0.009434755406796875,0.0170533949609375,-0.0920834411484375,-0.018660582460937502,0.294561325,3,6
0.00010202170937500008,-0.004930943759609375,0.015133554813523438,-0.04446872274218751,0.002976031888281251,0.14034166828125,3,6
-0.005664651854609374,0.0005173678511718752,0.004095400524070312,-0.01691400174609375,0.0100840018075,0.0419807558671875,3,6
-0.0024394799221093754,-0.00239434741609375,0.0059161523082031245,-0.00047786091406250004,0.0059995613028125,-0.006469071375,3,6
-0.0030136677549218753,-0.002513418300390625,0.00699559344921875,0.0037625532929687496,0.004229777327265625,-0.0184756759140625,3,6
-0.002316974218359375,-0.002221808455,0.004904379726562501,0.00632349622421875,-0.0012122079275,-0.015281850070312502,3,6
-0.0007027206710859375,-0.00062738725440625,0.0022082488836718747,0.006013411415625,-0.00248850133109375,-0.008620816916796874,3,6
9.253210149218751e-05,-7.090647589062499e-05,0.000889140245390625,0.00421653317265625,-0.0038640238053125,-0.0037163319829687496,3,6
0.001218271079921875,0.0020045144609374997,-0.00484275929296875,0.003606549852421875,-0.005815602564140625,-0.002132921453671875,3,6
0.00207915953515625,0.0030328545628203122,-0.00782487901828125,-0.00015789557179687528,-0.006956350740625,-0.00204107605078125,3,6
-0.00063653460625,0.0010397515753203127,-0.00108028663859375,0.004142853599218749,-0.0097017434984375,-0.0025654371656249997,3,6
-0.00231589341765625,0.0007297492416406253,-0.0002225846178906247,-0.0083414332390625,0.009714203406249998,-0.00228580322890625,3,6
-0.006131051066875,-0.001447811406796875,0.004026710533671875,-0.013208421343749999,0.024202359875,0.0047115865390625,3,6
-0.007439582049671876,-0.004449906509375,0.012716539126562499,0.001618967562499999,0.009665831207812501,0.007077968235156249,3,6
-0.0006916312551406246,-0.001731241286484375,0.00504477772890625,0.0076418121484375,-0.012583079060156249,0.00145568116484375,3,6
0.00755057616171875,0.0038924577595312497,-0.01009814051328125,0.01403614273046875,-0.01634970031640625,0.0031632111828125004,3,6
0.0026995531312500004,-0.026888258180460936,0.0362443919765625,0.15913427968750002,0.09673549390624998,0.171193551171875,3,6
-0.004327036049921875,-0.005626758589132813,0.021000261282031252,0.12045749196875,0.036220238867812504,0.09060685307265626,3,6
-0.000514951628828125,-0.005510286577890626,0.0144328439921875,0.06088004501562501,0.004096739821484376,0.02558846385,3,6
-0.0029783533953125,-0.0029698225164062502,0.00595722185125,0.0221599682953125,-0.005643944913515626,-0.0034821902367187497,3,6
-0.00192088806484375,-0.00084505763765625,0.00309677858046875,0.001919636305859375,-0.0098137336328125,-0.012500683334374998,3,6
-0.000474240112734375,-0.0010455354027343751,0.0012794428730468748,-0.0054372640809375,-0.007180632184375,-0.010319547235156249,3,6
-7.85090089062501e-05,-0.0006038191208593749,0.00046018451726562496,-0.005400807745390625,-0.005059001232812501,-0.00566417874609375,3,6
-0.000994904272734375,0.0006068442867187499,-0.00012430577499999992,-0.0030970638871875003,-0.0010769837640625,-0.0017859952421875,3,6
-0.00046684283953125005,-0.0005254665296875,0.001246406070390625,-0.002757312176875,0.0030357908196406254,0.001108520058359375,3,6
0.00013786586125,-0.0014914256540624997,0.0024615276859375,0.00024316728914062504,-0.002011148010828125,-0.00016682074320312492,3,6
-0.00050235818859375,0.0008748074741406249,-0.001589337493984375,0.0019154501775,-0.00195366329375,-0.0013182218768828125,3,6
-0.0008079025201562499,0.00071912677546875,0.00028799882562500004,-0.000995022757578125,0.004136596286015625,0.0008876623956171874,3,6
-0.0012541389383593751,-0.0013450032667968752,0.004771649183800001,-0.0013255700218750002,0.002363614986796875,0.00103068438078125,3,6
0.00081471827234375,0.00165403297890625,-0.00337313849760625,0.005663172196093751,-0.0011259803656250003,-0.00056852255421875,3,6
0.000851350621640625,0.00129545727109375,-0.00415999695796875,0.0013012715109375,0.002391124453125,0.0026476930425,3,6
-9.793198117187498e-05,-0.00040725330789062505,0.0007033261764062501,-0.0005151826007812497,-0.0040799071265625,0.0003538614996093751,3,6
-0.007670780752343752,-0.00986167340546875,-0.011777684406249999,0.2815050097421875,-0.0788994035,-0.10561811805,3,1
0.022186342672656244,0.00921019117265625,-0.0028616753437500026,0.0539471082578125,-0.0034376185390625064,-0.029132183718749996,3,1
0.008012391284375003,-0.018839629703125,-0.0031110960625000024,0.004558372421874998,0.01864024841406249,0.016078315754687506,3,1
-0.015328341578124996,-0.011176520503125,-0.010043348234374999,-0.004537738210937503,-0.028446888429687497,0.024905449762500004,3,1
-0.008326819085937496,0.0236065438015625,-0.0137192617171875,-0.0168211147734375,0.011887772877968744,0.0206757811484375,3,1
0.011355931031249997,0.011742095023437503,-0.002383942779687502,0.01760745659374999,0.018213619073281256,-0.022006596148437505,3,1
0.0187127109609375,-0.008524166085937498,-0.001143685189062502,0.016894325484374993,0.01544784972656249,-0.032253413445312504,3,1
-0.009389933906250002,-0.00035125372109374997,0.005137753318750001,-0.048292426812500004,0.022401336453125004,0.006634039703125002,3,1
-0.019734066796874998,-0.004739890501796875,0.016880402945312498,0.002171120874999999,-0.01051560733046876,0.013297624499999997,3,1
-0.0028543093750000017,0.0031049237427343748,0.0093332760078125,-0.0052354491093749966,-0.013117590010156253,-0.006303532742187501,3,1
0.013721840117187498,0.016346424109374997,0.0033016333125000007,-0.031392888460937504,-0.034654396186718756,0.015785186743593742,3,1
0.009200588527343748,-0.008972155414062499,-0.007846596367187498,-0.023554055406250003,0.00032729971406249975,0.026546897274843752,3,1
-0.0020282800499999984,-0.011819312257812499,-0.0051563674765625,-0.018399156304687497,0.020549738410937504,-0.011467387492187503,3,1
-0.004692659272656253,0.0127752177578125,-0.003055914390625001,-0.026724291718749998,-0.0014323096148437468,-0.003311953157031253,3,1
-0.015914375296875,-0.009259236468750001,-0.02410095780703125,0.35104887635937504,-0.08875332421484376,-0.08129587095000002,3,1
0.00014284455781250066,0.0186275415703125,0.00231624959375,0.13545110393749998,-0.032762933832031264,-0.011872273617187505,3,1
0.012874946214062502,-0.0046044615468750025,0.00019518662734374637,-0.014675989296874995,0.01934053210156251,-0.02315001502968749,3,1
0.010009214742187503,-0.014050240765625003,-0.0069273161171875,-0.06970425284375001,0.01196955705390626,-0.016358409990625,3,1
-0.0065220620234375005,0.004818064718750001,0.0041348707234375014,-0.0633854537109375,0.012764106613281256,0.0018432616796875039,3,1
-0.0089112678046875,0.0101152721171875,0.014116806817187499,-0.034342459890625,-0.0015331737843750082,0.010239107296875,3,1
0.0074225247957031264,0.006610862392968748,0.0059338739296875,-0.0109353343046875,-0.021775472421874994,0.020176362414062503,3,1
0.015085073834765627,-0.009603477910937495,-0.010599774492187502,-0.014201937128125001,0.01709913334374999,0.0243271364296875,3,1
-0.0010968377734375035,-0.018204077615624998,-0.009852541992187502,0.021398079512499994,0.010310209312500006,0.0009811078203124995,3,1
-0.011433913171875,0.005357262641406249,-1.551443749999836e-05,0.0360846408125,-0.020682578117187503,-0.012166486218749998,3,1
-0.0101756575625,0.0043874489984375015,-0.0033002096093749994,0.0037840992992187496,-0.008474809085156257,0.008218483664062498,3,1
-0.0024651654687500024,-0.0013771377281250018,-0.008486233548437501,0.011439436603906247,-0.00045212031171874487,0.0030111962421874995,3,1
0.004173457054687496,0.006957584093750002,0.0064749172015624995,0.0024672897187499997,0.010343408984375,-0.01711963328125,3,1
0.012021820203124995,0.010651952321093755,-0.013133546882812503,-0.023372371952343755,-0.003403284226562499,-0.007050512867187494,3,3
0.0036218313906249975,0.007967340453906251,-0.0184109427109375,-0.010217312874218752,-0.009262038484374995,0.018533975132812498,3,3
0.015207386387500002,-0.013744356019531258,-0.024754985062500002,-0.3929159395859375,0.10285855278125,0.038992183468750004,3,3
-0.0111128888546875,0.001124399775859375,-0.031449243746875,-0.3333586030242188,0.1021705137265625,0.025284057617187494,3,3
-0.01043169939609375,0.0031430456860156255,0.0075656295421875006,0.18577192406328125,-0.033062843984375,-0.024841728553125,3,3
0.015318732260156247,-0.007480364140625,0.0123106313359375,-0.1128433372953125,0.039348878335937504,0.024915699251562496,3,3
-0.0035191261796874993,0.00032284691406250007,0.002688542999999998,-0.07943384708593751,-0.031836866703124994,0.017948479250312503,3,3
0.00019998520312500094,-0.0009309013828125016,0.022992328328125,0.4229605989609375,-0.1192985550234375,-0.03492789852312501,3,3
-0.0009066530468749999,-0.004326112679687502,-0.006147214976562497,0.3479679479609375,-0.07548672273437501,-0.023646379507812502,3,3
0.012793063359375,0.008370256084375,-0.0036940339016406226,-0.3648761268046875,0.10463600079687502,0.05292680465625,3,3
-0.018333992312500002,-0.006727307116406251,0.0003437685671093772,-0.2440563905234375,0.0450062151328125,0.029538573210937502,3,3
0.016302272117187495,0.00453785699453125,-0.008621938053125,-0.49916199364062497,0.104929201484375,0.049173907960937506,3,3
0.02002341349796875,0.011980224507812502,-0.015131783201562499,-0.35079387483593755,0.07854272228124999,0.010914996607812501,3,3
0.005017393740156251,-0.010204695632812502,0.01656095235625,0.1840390365703125,-0.012700818578125002,-0.0073071135718750044,3,3
-0.00033508324218749805,-0.019348583781250005,-0.008436396682812502,-0.0939301528125,0.05770315766796875,0.01867928696875,3,3
-0.028620759578125,0.010859096617187501,-0.014406429624999998,-0.010218080390624981,-0.008615769894531255,-0.0035825170296875,3,3
0.013580290226562503,-0.0027367184765624995,0.014173671562499999,0.4413226112890625,-0.1348178714453125,-0.017354584869531245,3,3
0.0303415214765625,-0.006356129460937497,0.0024728240843749985,0.260016447796875,-0.0416662446015625,-0.029811029496093745,3,3
-0.01582506919296875,-0.008927052046874998,-0.003057204632812503,-0.529477824926875,0.11843425461875001,0.056593420953125,3,3
0.03090921186953125,-0.0144897595859375,-0.015734897117187497,-0.43857844424218756,0.09452719123125,0.1007366372421875,3,3
0.0217129102734375,-0.0104929681640625,-0.025056947748359374,-0.7359249297109376,0.210066474065625,0.086397789015625,3,3
-0.016284209632812505,0.013844348742187498,0.013437876509453125,-0.35724834624999996,0.083058963828125,0.025419420759375,3,3
-0.0057819937968749974,0.011048489570312502,-0.0079015238984375,0.0422331090625,-0.023276641585937497,0.014566426017187505,3,3
-0.01021396740625,0.00674223425546875,-0.023983916429687495,-0.065309885078125,-0.006225220890625003,0.008047799234374996,3,3
0.011650598031249997,0.004097793271093747,0.02470876331953125,0.35919272375,-0.0739689850859375,-0.0562225322421875,3,3
-0.00018613078125000182,-0.009630355881875,0.02295219156484375,0.21039343265625,-0.060603344015625005,-0.039622825023437495,3,3
-0.03218796476171875,-0.043744929125,-0.02307429246875,0.341717550625,-0.08862926306249999,-0.07950170283984376,3,2
-0.0090562105125,-0.0011494413203125024,0.004562079882812499,0.10321122992187501,-0.01547488281015625,-0.07048240708203125,3,2
0.004456777898437502,0.009455526601562505,0.0062531161171875,0.23649615999999998,-0.08725988941171875,-0.09652914614062501,3,2
0.009004669164062501,0.014832730929687503,-0.00756602428921875,0.41831373023437496,-0.1455276984609375,-0.10150452839062499,3,2
-0.010157573746875,-0.016938932554687498,-0.015247238890781254,0.04473163328124998,0.0040558211171874935,0.0279389206875,3,2
-0.007043476700000002,-0.018455492859375,0.00455623703125,0.14093100320312502,-0.02655429517187501,-0.020344006265624996,3,2
0.023132940281249997,0.017667566531250005,0.015506319554687497,0.04676902781250002,-0.017820830328125002,-0.011643481109374996,3,2
0.0069658125046875,-0.004220572796874999,-0.012829281281249999,-0.487923632734375,0.13784979117187499,0.11480176353125,3,2
0.0023464084421875,-0.0078267888515625,-0.026084067335937496,-0.29601398340625,0.087695555203125,0.07446214803125001,3,2
-0.0308164946875,-0.08095955159375001,-0.030707567609375,0.4097884928125,-0.100493605859375,-0.077524578046875,3,2
0.006650576960937501,-0.0308883194453125,-0.006809637695312499,0.21717883143828126,-0.013503446203125005,-0.08024841453359374,3,2
0.023277102117187497,0.0028301618906250003,0.013604160351562502,0.5102842276882813,-0.1452754735625,-0.14698782511171876,3,2
0.0060168629531249995,0.010454407006249998,-0.004476604804687503,0.35662716365624997,-0.14968667625546878,-0.070006012484375,3,2
-0.021049918234375,-0.020205352720312503,-0.007447384523437501,-0.10212046665625,0.02988501140078125,0.05023327909375,3,2
-0.01327227346875,-0.0099300609140625,0.023335040315625003,0.157601898921875,-0.057100371625,-0.021401755617187504,3,2
-0.004677317249999999,0.014139180335937505,-0.002575124606249998,-0.08439675264062499,0.0139387519375,0.015862288390625,3,2
-0.018077310609375005,0.0034516024921874998,-0.02012192753125,-0.450766387265625,0.167339377765625,0.0823118437890625,3,2
-0.011806219093749999,-0.067222283421875,0.021762901179687495,0.5942867280234374,-0.087259633921875,-0.17781882460937498,3,2
0.0048813302968749965,-0.0076110949375,0.007916239726562498,0.418690746140625,-0.09038208476562501,-0.13508085132890624,3,2
0.004235514281250001,-0.0023854088515625014,-0.002339940937500001,0.6290940168828124,-0.252651309265625,-0.19416050487578124,3,2
0.004322045405468751,0.012251648609375002,0.0020808688593749983,0.3802158821875,-0.13868674667578126,-0.1155465496875,3,2
-0.005197662810156251,0.006202459721875001,-0.001311630804687501,-0.14974274071093752,0.04988546820703125,0.028852952257812495,3,2
1.3698378124998899e-05,-0.014025989543749999,0.00752089171875,0.10407799010937499,-0.04576423571093749,-0.011315133445312504,3,2
0.004054432640625002,0.0015759169398437533,-0.00819722139375,-0.05981513570156252,0.045838078078125,0.0509868098125,3,2
-0.0031625222656249986,0.0004841414164062467,-0.010279931409375002,-0.427471014209375,0.16733363229687498,0.11708981446875,3,2
-0.01661393068515625,0.038566310837500006,0.07595253510687501,0.012028315734375,0.21740374382812505,-0.171406549734375,5,5
-0.005904877793750001,-0.01766368178046875,0.022432841083437495,0.032664252934375,0.1322731646875,-0.009749191124999999,5,5
0.004095990396875,-0.019187435776562498,-0.0154283994375,0.028236904075,-0.029133067546875,0.012066390202343753,5,5
0.006714935828906249,0.01845800561875,-0.03810948275390625,0.0344533006328125,-0.039584666869296875,-0.030014335680468747,5,5
0.004973449136718749,0.007736780363671875,-0.01148251369921875,0.031233400465625002,0.042825851926015616,0.000830530367187501,5,5
0.0013573535671874996,-0.015421763465234375,0.002300379453125,-0.038765477659375,-0.004649040865624999,0.0016343357031250003,5,5
0.0010612751120078123,-0.0032553761027343748,-0.009168298390625,-0.031601196375,-0.005080925325070313,-0.0011404038140624996,5,5
0.0013229865815390625,-0.002035836660859375,-0.004759451644531249,-0.012768091188984376,0.000386582693679688,-0.0015982569179687498,5,5
0.00025321472171874995,-0.00019295126671875018,-0.00017104922500000007,-0.008564510925703126,0.005936525295312498,-0.00756645667421875,5,5
-0.00044146636648437497,-0.0072225568560156245,-0.00410083903359375,-0.15255810475234377,-0.0030601336374999994,0.016537140109375,5,5
-0.000662780049140625,-0.0027841451054687483,-0.00215161401171875,0.06037140421875,0.007424809503125,-0.0081011596609375,5,5
-0.001149469074921875,0.017855367710546875,0.00972915555859375,0.1890605106640625,0.0051098960828125,-0.020034162629687498,5,5
0.001470849795765625,0.005109705835000001,-0.00387604268671875,-0.0321137059375,-0.0058201441046875,0.01039104183359375,5,5
0.00040406797849999997,-0.007503492175781249,-0.0011865461468750001,-0.027325657320312502,0.0018516147468750006,0.00272453944453125,5,5
-1.3377334062500011e-05,-0.0008991150937421875,0.0025940431914062505,-0.017086387209374998,-0.002042457008671875,-0.0011589255968749998,5,5
0.0350629383228125,0.1176138809140625,-0.003013462030468748,0.070453474096875,0.06269485935937501,-0.11785771535937502,5,5
-0.003523164636484375,-0.007957835642187501,0.013879407692187502,-0.0018703941164062497,0.02216456437890625,-0.03676509911640624,5,5
-0.00012704262427343753,0.007410006371875,-0.00265106043203125,-0.051750716209375,0.00755669500625,-0.00358304146328125,5,5
0.00046423696471093774,0.006100883770546875,0.00011175018874999988,-0.0045159417070312485,0.0022177797171875,0.02054493098359375,5,5
0.000316052761796875,-0.0020813678289843753,-0.00182236117984375,0.030047888426562502,-0.00552914926953125,0.020272713997656247,5,5
0.0007023594471875,0.0046359039880468755,-0.0054487559637499995,-0.0021736425796875,-0.004560897888872657,0.00449572598984375,5,5
9.258210117187509e-05,5.92469477343747e-05,-0.0014003267901562502,-0.006263484639843751,3.4612084564844114e-05,0.00804693393828125,5,5
-0.00042284336296875,-0.0077610089393749995,-0.001211507966875,-0.008993977642187501,-0.0023475680625,0.0040316394039843755,5,5
-0.00012296563611718752,-0.0031634431371875,-0.0037721358937499996,-0.00470344593675,0.00015655981406249994,-0.0020749177522656247,5,5
0.0004749656615390625,-0.00187592865171875,-0.0015128365202343752,0.00044040638903125,0.00305634567421875,-0.002407722194921875,5,5
-0.000357944175859375,-0.0011051289221875,0.001470672243203125,0.004262582521875,0.00343480056015625,-0.00234303505828125,5,5
-0.0003710307879687501,-0.00012321172485156248,0.00252140311265625,0.0016296984274296875,0.00309645990765625,-0.000912886898984375,5,5
0.00029513758140624997,-0.0017287358979765624,0.0032302983046875,0.0012100326907890624,0.0020869671803124996,-0.00258215570671875,5,5
-0.032308332403125,0.08380478654453125,0.0030595212765625003,-0.01797731960703125,-0.021574981928125,0.144479932859375,5,4
-0.00441454433515625,-0.00898374686484375,-0.01246028871171875,-0.0034105936460937496,-0.052993532990625,0.1276510681875,5,4
-0.00335890256484375,0.017269344300781253,-0.010943903244531249,-0.010732361498437499,-0.030988046846093752,0.077529062171875,5,4
-0.00674072152578125,0.010204757680390624,-2.4955364843750108e-05,-0.011773070781249999,-0.006727617778968751,0.039521051071875,5,4
0.00021471691328125005,0.001419431824921875,-0.0033424165953125006,-0.007365260407031249,0.0006209647046250005,0.014291680783593752,5,4
-0.0019643773242187497,0.001194203115625,0.0009558479124999999,-0.0043963529703125,0.007612539393749999,-0.001128593721875,5,4
-0.000809283722890625,0.0007949328439375001,-0.0011383936589687501,-0.0037214051367187497,0.010172421098437499,-0.006605470781250001,5,4
7.272740070312484e-05,-0.0011712614323906249,0.0038961217105625,0.0005650839515625001,-0.0005922514609374991,-0.0019934458325,5,4
6.040081351562461e-05,-0.0004059618427343746,0.00162201859921875,0.0063581859640625005,-0.01383104355390625,-0.0009737758106249997,5,4
0.00261155294859375,0.0012209614056249997,-0.0107170276609375,0.0038678865078125005,-0.0050977275632812504,-0.0026128436750000004,5,4
0.0007524454899218749,0.00138653327609375,-0.0085329679453125,-0.0017717098510156252,0.00874239460390625,-0.005953083267968749,5,4
0.0035828775226562502,0.06190575343906251,0.010508255234375,-0.2260117120234375,-0.00356876329296875,-0.28113990070312506,5,4
0.004122988716171875,-0.003258469275000001,-0.01064285819609375,-0.1247886053125,-0.00958816039453125,-0.099233649453125,5,4
0.00269141222296875,-0.018827465789921876,-0.0095379608490625,-0.04707908844140625,-0.0108113811078125,-0.02894104869296875,5,4
2.7068487265625085e-05,0.005571142170234375,0.0005812155232812499,-0.00806583617421875,0.0057375715640625,0.0029806310343749995,5,4
-0.000941206316953125,0.005369149336796875,0.0034768704496875,0.009950560815234374,0.0119684376796875,0.00942141007109375,5,4
-0.0007223870422109377,0.01001872104984375,-0.0035374565140624996,0.011987916404296875,-0.0029990456718750006,0.016831392973437498,5,4
0.0010915493711484373,0.0009834565684375,-0.008308794053906249,0.006837827035390625,-0.00439068221171875,0.014787292572343751,5,4
-0.00011874035414062488,-0.004258575364375,0.0006430261843750002,0.0008373896557031251,0.009994772641484375,0.0036607202628125,5,4
-0.0010171172521484374,0.0004771693958593747,0.002698977734375,0.000586485337265625,0.0003675345610937501,0.0019067935060937502,5,4
0.0006015637774609375,-0.0008073669929687498,-0.00136339034609375,0.0016869444435156247,-0.00161134261640625,-0.0033156132971875,5,4
0.0009405225369609375,0.0005982700137499998,-0.0062237241765625,0.0021277602960937496,-0.0043743212094531254,-0.0014030579753125001,5,4
-0.0019911742446796876,-0.0006662647878125001,-0.00688345910859375,0.0052869537125000005,-0.03299773433359375,-0.0149228451140625,5,4
-0.010595644163281251,-0.008164105360937498,-0.0078955032625,0.01285354225703125,-0.03430149200617187,0.26275381710937495,5,6
0.013351085958984377,0.001292191491328125,-0.00466815217578125,-0.00871776958125,-0.0268078821359375,0.1468597025,5,6
0.006514643347265625,0.0006925044538281251,0.00877745506015625,-0.0012494259085937493,-0.023264327045312498,0.0676083513203125,5,6
0.0104726664171875,0.0007799947015625003,-0.006206183515625,0.0035533927500000003,-0.004365105992968748,0.008000979734375,5,6
-0.005899528971875,0.0011112755796874997,-0.007807448078671876,-0.002860750803125,0.011942800749218751,-0.026346253718750004,5,6
-0.008593544428124999,-0.00022977451460937483,0.001223820686171875,-0.00674765019921875,0.00039545090937499993,-0.01655112139375,5,6
0.0007234084242968749,-0.00098014857015625,0.0030036909718750004,-0.00209121018421875,0.00046109462053906246,-0.006771077469531249,5,6
-0.00018038153035156252,-0.00013809430914062506,0.0015799259609375002,-7.568164820312512e-05,0.00017818336655468764,-0.001888829777734375,5,6
-0.0005816035877734375,0.0004141110620312501,0.00202354903078125,0.000916837534453125,0.000642088231953125,-0.000364133111328125,5,6
-0.000595513143703125,-0.00013642822031249998,0.001225959240390625,0.0003267300548437501,5.588756562500004e-05,5.429951623437513e-05,5,6
0.000357981075828125,-0.00090860663078125,0.00095970777046875,0.0010148123337499998,0.00021309375875000003,0.00113956100115625,5,6
0.0004372775353906249,-0.0004723545853124999,0.000293233837421875,0.0008630030499999999,0.00061750724546875,0.00013131844515624992,5,6
0.0005708132966406249,0.00068288467046875,0.00028093358203124994,-0.0023464096234375002,-0.001606914597734375,0.000827005673515625,5,6
-2.878147367187502e-05,-0.0005774115597656249,0.00033225908140625,-0.0021484309371875,-0.0035563171996093753,0.006782925740625,5,6
-0.030154431578125,-0.0022515040012499998,0.024893127885078123,0.156157708359375,0.05827575714062501,0.2783621109375,5,6
0.017235792396093748,-0.0028187776781250003,-0.0008326439597656251,0.0687052996203125,0.022279398508203124,0.165657069140625,5,6
-0.0036877788770312498,0.001361758600546875,0.000334344669359375,0.020229450490703127,-0.0008011050074218756,0.06863983103671875,5,6
-0.00029226391309843764,-0.00041288133460937496,0.0005685433482656249,-0.0020946156172499996,-0.006721221217046875,0.0122656920140625,5,6
0.0012051078207296875,-0.00035196475507812505,-0.0024153009006250004,-0.009948159503265625,-0.005976011527984375,-0.01008778828828125,5,6
0.001198400711015625,-0.00013960730195312503,0.000563108735,-0.010814241964062499,-0.0045145353546875,-0.013369655062500001,5,6
2.1607394843750033e-05,-2.4510005000000015e-05,0.0018622924250000002,-0.00501028054140625,-0.00024547547421875,-0.01053144893125,5,6
-0.00038535494445312505,0.000499525278359375,-0.0004870221108593751,-0.00040495047421874994,0.00041892109609375,-0.005825128237499999,5,6
0.000232621734453125,0.00040781663484374986,-0.0005669715577343751,-0.00015950693984375015,-0.00359008488515625,-0.0006326424328125001,5,6
0.0011152899906250002,-0.00022027809546875017,6.722392460937506e-05,-0.0011495720765625,-0.00138223156796875,0.0008359478686718751,5,6
0.0012759305757812501,0.000108604905859375,-0.00025759033429687483,0.00041687006265625015,0.0019928800734375,-0.00019341009558593753,5,6
-0.0004981346078125001,-3.7824114374999986e-05,-0.0007096510453125,0.00145867610234375,0.00105983851796875,0.00011260848886718735,5,6
-0.0002885200390625,0.0008616321295312501,-0.0012278146860156252,0.00101727417484375,0.0020423544289062505,-0.00032089603984374987,5,6
0.0026195805656250002,-0.0003718938938281251,-0.000172401364140625,-0.0001675061782812501,-0.0022030677429687494,0.003474564780859375,5,6
-0.005593603304687502,-0.019807455164062498,0.020589406875,-0.43918299281250006,0.0789974821796875,-0.028430800773437497,5,1
0.010364476046874993,0.006850568898437499,0.003271543861718749,-0.120223338484375,0.010359164281250003,0.013522850273437503,5,1
0.005004254114843752,-0.0014745112335937506,-0.0010519078335937482,0.003706242296874998,-0.0044132101640625004,0.015253509875,5,1
0.0014190485289062513,-0.006725581749218752,-0.0034035501093749995,0.035125171648437495,-0.016928915291406246,-0.015365577265625,5,1
0.002478369289062499,0.008252550062499999,-0.0004751306015624993,0.0315109125078125,-0.007577468955468746,-0.020889759687500002,5,1
-0.0032250197484374986,0.0047492346953125,-0.0086458281640625,-0.036093939078125,0.017317514875000002,0.018786479585937498,5,1
-0.0105859069359375,0.00146516749453125,0.007614306351562501,-0.044136366070312495,0.028275278867187503,0.017441329284375005,5,1
-0.008871029992187501,0.0043939247250000014,0.021606090940937503,-0.004482569195312501,0.019171496500000003,-0.002857197739843751,5,1
-0.0077941649860156234,0.0004944679648437502,0.004515250476875,0.0088038856875,-0.028348852085937497,0.0010448464757812533,5,1
0.004012483912421876,0.010352520775,0.002039868527343749,-0.017664710625000003,-0.0251615804921875,-0.01229840949999999,5,1
0.0150323910390625,0.008698809626562496,0.0012409816554687495,-0.022468404609375006,-0.023434530351562496,0.017372616484375,5,1
0.003978722343750003,-0.0121161217890625,-0.0008721073789062488,0.012577103421875003,-0.025588551898437506,0.013780826554687499,5,1
-0.007318560023437502,-0.015911558710937503,-0.006424471511718749,0.042046201062500003,-0.005367858617187499,-0.0022495987343749985,5,1
-0.00878521046875,0.005004004175781251,-0.0122443443828125,0.051135911992187505,0.001959855796875,0.012518222632812503,5,1
0.0033807194500000007,0.013768032167968748,-0.005165756656250001,0.026135770453125,0.0299778902734375,-0.014526498070312503,5,1
0.005007992200000002,-0.002390418304687501,0.002146691046874999,0.0359689657890625,0.0273762421796875,-0.030097517843749998,5,1
-0.011129948796093752,-0.021704583031249995,0.0128919695390625,-0.37271957408593753,0.042416323046874996,-0.023703276523437494,5,1
-0.019939399406250002,0.007792880078125,0.0116721763515625,-0.1440476738671875,-0.0003469240945312511,-0.005854674804687498,5,1
0.010726481562500001,0.012406656000000002,0.01010208411328125,-0.034904816227343746,-0.024045161946093754,0.007956982031249997,5,1
0.012053068109375,-0.0008060823906249994,-0.0016799566749999997,-0.0040938103757812445,-0.0170808519921875,0.0276745328125,5,1
-0.01162233531484375,-0.019426166054687503,-0.011098890842187502,0.08046936352734374,-0.028627128203125,0.012887644639843748,5,1
-0.006343235900781249,-0.004891678195312501,-0.008484167389843748,0.09251498123828124,-0.012741464953124997,0.010318407796093748,5,1
0.0014937512890624996,0.012387700734374996,-0.0005359947101562495,0.027822959812499996,0.020819500359375007,-0.0060095270156249984,5,1
0.00698999728125,0.013996298500000002,0.003344235625781249,-0.0016077027187499995,0.022516690812500004,-0.022089664561718746,5,1
0.010337434662499997,0.0122468412734375,-0.0047404960546875,-0.018779859179687493,0.005877095109374994,-0.026843644608593755,5,1
-0.002995542650000001,-0.0042853500390625,-0.0068781522890625,-0.05830611209062501,0.009191262429687493,0.0029864795000000034,5,1
-0.016986199921875004,-0.005615786100781251,0.0055963734296875,-0.0250085299421875,0.016204220132812495,0.022172516476562508,5,1
-0.007175383000000002,0.008591513953906253,0.012867877867187499,0.012625625312500005,-0.003868569328125005,-0.0020855130625000023,5,1
0.0162481456953125,0.009984205015625002,0.004409893546875,-0.0287248826640625,-0.016621479825468747,0.008674587976562498,5,1
0.013299768031249996,-0.014191005382812502,-0.00036969899218750133,0.002299760226562503,0.000173424471406251,0.004059800250000003,5,1
-0.0028472774062500046,0.033903412925546876,0.021487015472656253,0.1042961153671875,0.020182893859374995,-0.003924995460937497,5,3
0.0002063346328124941,0.007914615402890625,-0.0012161342109375,-0.03603851353125,0.010469325255468745,0.018437198273437497,5,3
0.0015813880156250008,-0.00550311791953125,-0.005586169726562501,-0.38538819142187497,0.005415148352343746,0.001103092742187499,5,3
-0.004742961554687503,-0.011665679521093748,-0.006694861796875001,-0.321038237421875,-0.027735821254687494,-0.008999670625000018,5,3
-0.00013940147656249513,0.018374740657031253,0.004413702148437499,0.04035517195312499,-0.006258252890624989,0.016396377710937497,5,3
0.008438493828125001,-0.005355479898437501,-0.0007509817343749978,-0.0871778009375,-0.005918214195312507,-0.010437171406250015,5,3
-0.012524476749999998,-0.021605899504687498,-0.0058195484859374985,0.149355604375,-0.01355832861718749,-0.008480860585937493,5,3
-0.005948645656250001,0.01544845610625,0.008585298771874996,0.45323613039062505,0.028429295265624988,-0.005101415351562492,5,3
0.029654968593749994,0.00831085748125,0.0024333236796874992,0.268562711484375,0.016402743890624995,-0.026897008312499995,5,3
-0.012919162109375,0.0171628563046875,-0.016379411150781252,0.2521562246875,-0.008750303132812502,-0.0444857752421875,5,3
-0.020029699436718756,0.018241602796875003,0.008857295575781247,-0.0035789362499999977,0.03678928468749999,0.018803507382812504,5,3
-0.005129402717968747,-0.004037293054687501,0.014585778101562502,-0.3959095603125,0.028294739138281243,-0.003070511414062494,5,3
0.014987998906249996,-0.017449023140625,-0.009782486328125,-0.34978413756250004,-0.021712570697656246,-0.0325597971625,5,3
0.016871858515624998,0.014773648445312497,0.0015613259453125007,-0.056567531085937484,0.0054348605781249955,-0.0009295608968750008,5,3
0.035564089007812494,-0.011275476025000002,0.009438279625000004,-0.1258365612578125,0.007759477523437492,-0.012889148789062513,5,3
-0.0154613058671875,4.686420078124989e-05,0.0020979312421874974,0.17557229540625,-0.041688955234375005,-0.00975371011796875,5,3
-0.041634198078125004,0.02773369921796875,0.00735804053125,0.48643430392187503,-0.043532898781249996,0.031689555217968755,5,3
0.0316252823984375,0.025687296242187498,0.04451906682031251,-0.4165528784375,0.0743480926875,0.053047679554687505,5,3
0.033195043960937504,0.0006389409062499962,0.008160118054687499,-0.482523252890625,0.028611245710937504,0.053892916812500004,5,3
-0.03132782382812499,-0.017076696867187498,-0.005823769632812501,-0.690100090234375,-0.028381841093750002,0.012593701597656246,5,3
-0.010773995453125,-0.022601246640625,-8.816524148437446e-05,-0.22030786830078125,-0.013726308492187506,-0.0032462916757812557,5,3
0.0220920825,-0.004719903124999999,-0.008930341148671875,-0.051064415410156244,0.00453155797656251,-0.0066269332031249975,5,3
-0.005701439671875001,0.007294056273437504,-0.008018766704062501,0.06177305390625001,0.0017822349296874943,-0.025956649281250004,5,3
0.0058854937578124945,0.012785618890625,0.009217658515625001,0.487559405234375,0.024769142390625006,0.005075232203124998,5,3
0.03257289603124999,0.01369030090234375,0.0147598150953125,0.24684669895703126,0.018415854343750003,0.018212324445312494,5,3
-0.020292293843749996,-0.0874606126484375,-0.0017088457484375004,0.43977760019531253,-0.07016502828125001,-0.0706700469609375,5,2
-0.0064462469437499975,-0.0009611026796875009,0.0020935822249999987,0.308719069765625,-0.06939792214843751,-0.04673834071875001,5,2
0.018768973970312502,-0.006773260601562499,0.011369616475,0.3109549446640625,-0.054907612539062504,-0.021993447256249993,5,2
0.01440185591203125,-0.0092656571484375,0.011430178046874998,0.342138793453125,-0.0406135575,-0.017411382264062497,5,2
0.00024409693546874767,0.01161767684375,0.002086192773437501,0.081530621640625,0.007286968185937499,0.010496502078124997,5,2
-0.007561847763281249,0.013751567445312498,-0.004318975914062502,0.053160160015624985,0.009421413264062501,0.0015681848749999963,5,2
0.00432659885390625,0.006744394484375001,-0.01110108634375,0.047195981734375,0.0243240578984375,-0.019035401554687505,5,2
0.009822870117187498,0.009542874515625,-0.0010313865843749994,-0.29872219109375,0.07465571521875,0.020283936617968755,5,2
-0.007638684624999999,-0.00508079653515625,0.005423861548437501,-0.35163673879687496,0.062086470203125,0.024725276735156253,5,2
-0.018644988921875,-0.0653866012421875,-0.014642199398437502,0.5705867482421876,-0.08535906199218751,-0.025143312765624985,5,2
-0.006418599593750004,0.002511955937500001,-0.0131579635859375,0.29859901450781245,-0.040483856828125,-0.0349663731015625,5,2
0.003977569273437499,0.007889848203125,0.0071736735359375,0.367075025796875,-0.079981604953125,-0.058499625726562504,5,2
0.009222598721093753,0.008342183929687504,0.006675477278125,0.349501083828125,-0.0759928685,-0.033819560259531256,5,2
0.014708519017968753,-0.005345884335937499,0.0179334133515625,0.0957623475,-0.034751213,0.047161630287343756,5,2
0.005769232656249996,-0.026129913499999997,-0.0016305477031249998,0.127366299696875,-0.07632065893750001,-0.0063845918984375,5,2
0.005723958020312501,-0.006106290921875,-0.021463060867187498,-0.1646821330375,-0.010132895179687502,-0.026258491820312497,5,2
-0.004689106846875001,0.012469776835937498,-0.0031601748437500013,-0.46897031934218747,0.07937432414843751,0.0163474573003125,5,2
0.00873037996875,-0.053218239932812494,0.019632927094140627,0.7531801448984375,-0.08175431346874999,-0.026415210064062503,5,2
0.01717782609375,-0.001331404625000001,-0.011223631996093754,0.4517930915390625,-0.0666483784609375,-0.019674370351562494,5,2
-0.0005246026953125028,-0.0162950320546875,0.0010962799328125,0.459745773125,-0.11547612484375,-0.028927850507812502,5,2
-0.0012326707898437444,-0.006214187272656249,0.0036629223,0.30434354203125,-0.0911966383546875,-0.06046519397734375,5,2
0.00046270467890625324,0.01520937970390625,0.00803087409375,0.08279372400625001,-0.0335208089875,-0.03901365118828125,5,2
-0.013317991132812498,-0.0006556918140624996,-0.0082110263125,0.0910209074046875,-0.016804977304687496,-0.024553702156249996,5,2
-0.014040691640625002,-0.005257527368749999,-0.007096498812499999,-0.2457890618359375,0.03683258451562501,0.010823473257812499,5,2
-0.0018248543828125012,0.010485136359375001,0.0023356947664062485,-0.43602704796875,0.071008622484375,0.04132186636796875,5,2
-0.006259391380625001,0.019174609336718752,0.12410384627109375,-0.2046639075234375,0.2185327493828125,-0.0751457820078125,5,5
-0.00387154095484375,0.006705961202890626,0.021439859157031248,-0.10109670276562499,0.07255433195,-0.03514019351875,5,5
0.0029175666136875005,-0.005567776422109375,-0.02244876531640625,-0.0376184915703125,0.006031136668750002,-0.00938182076953125,5,5
0.001084138949,0.00431814172109375,-0.008425506186718749,-0.04994569368593751,-0.026768974617187496,-0.00582218268828125,5,5
-0.0003728269335937502,0.0028817781242187496,-0.0019392780312499996,-0.03540482957578125,-0.019708535609375,0.006942170265624999,5,5
-0.0005886543153124994,-0.00243488459265625,0.00347363429453125,0.009553139665625002,-0.0016726087804687505,0.010467315921875,5,5
-0.00026543429656250014,0.0044358470503124995,0.00023586976562499937,0.018675505516406253,-0.01909001211640625,-0.010325835083750002,5,5
0.00269119771484375,0.01064096069921875,-0.02083774809078125,-0.0028656794218750005,-0.01159757346796875,-0.0098299652634375,5,5
0.000299996856484375,0.005741311212499999,-0.004894612190000001,-0.01356298754921875,0.021024794460156253,0.006367200411718749,5,5
-0.0005670082813671875,-0.005285836548203125,0.005868088371875,0.004583610959375,0.006072761886718751,0.007535478407812499,5,5
0.0006164269519921876,0.000248692809609375,-0.0009873136607031249,0.006535810715625,-0.0010811542218750001,-0.00041514642828124995,5,5
-0.000131459672109375,0.003543444742109375,0.0011652128031249998,-9.191483437499817e-06,0.007240644215625,-0.00045091399312499993,5,5
-0.0006792307541406248,-0.0009284848036203125,0.005284375070078125,0.0011244972321875,-2.7257164062499683e-05,0.0015741264785156248,5,5
0.0005974099045132812,-0.0009640270654953125,-0.00179997077890625,0.002121706059375,-0.004365710353125,0.0013888432109375,5,5
0.03397757647109375,0.12058854787031248,-0.0015059139374999984,0.007926457822343748,-0.001714324563437503,-0.06643082884374998,5,5
-0.002394543996875,0.00549202290625,0.0295640758046875,-0.01728016214640625,-0.010427401196250002,0.015742969071875,5,5
-0.00066330185546875,-0.002749484383515625,-0.008885847067968751,-0.021805496017187502,-0.009849939374999998,0.031964924678125,5,5
0.001152107491828125,9.272946101562509e-05,-0.00396732666625,-0.009900738326562498,-0.01060069951546875,0.013505955695468749,5,5
-0.00065548596559375,0.005450063823437499,0.0062530094775,0.0021243810695312495,0.0029959199314062513,0.00994901378765625,5,5
0.0004240502586718751,-0.0010677749140624998,-0.0036035452546875004,0.013747717902343751,0.0009296657281250009,0.004416416998515625,5,5
0.00066541512,-0.0014259349974999995,-0.0012487734156249996,-0.0034311373195312495,-0.0014654956385156252,-0.002373041271328125,5,5
-0.000993291069609375,0.00430794875953125,0.00586670940953125,-0.01685792101881172,0.00049002025671875,-0.0028134359807109374,5,5
-0.000294659795546875,0.0026053736661562498,-0.0015977787740625,0.0007011969369695309,-0.0008123975703906249,0.0014791149266328125,5,5
0.00022441711515625004,-0.008209854084625,-0.0002582299105468749,0.00387011141125,-0.0042610283484375,0.01337779168828125,5,5
0.0010374032800781249,-0.00875528870390625,-0.0027340643606250004,0.006571146055468749,-0.0013781220945312499,-0.0003221156218749996,5,5
0.0006195476736718753,0.0028028124429687502,-0.00198921826203125,0.00464772371875,0.0045918527015624995,-0.012345082153906253,5,5
-0.0004970328243749997,0.00525294784453125,0.0030219216427343747,0.0017963084375000004,0.001836361769375,-0.00344027048671875,5,5
-8.434951765625e-05,0.009185304428906249,-0.028588180972656245,0.06996393099375,-0.04496159356578125,-4.657447656250969e-06,5,5
-0.008183000349140624,0.04553670263359375,0.012779623888281251,0.017747778428125,-0.025662299439062498,0.0672554141328125,5,4
-0.0004463184817968752,0.004962404383593751,0.007991525585156251,0.0196463670015625,-0.01052035900046875,0.07597717343749999,5,4
0.001712460813671875,-0.00486457880078125,-0.0031958671609375,0.01623337339140625,-0.01048539673484375,0.0375679301953125,5,4
-2.6082076874999976e-05,0.00022018166718750014,-0.0011516770219531253,0.0030151045453125002,-0.0025011674195312508,0.01163764786875,5,4
-0.0009193660071015625,0.0011116189723125,0.002788463191875,-0.00448971780890625,0.0030802486335937502,0.00020147200781249995,5,4
0.0004364646236015625,0.00030393169653125006,-0.0009868524753125002,0.00015396350359374983,-0.00198553579296875,-0.00362092874375,5,4
0.0009959486030390625,-0.000459859594140625,-0.0036245005258593753,-0.0014107756757812501,-0.0009118081967968751,-0.002611995597421875,5,4
-2.5637442265625068e-06,-0.000164091773359375,-0.0021854134357812503,0.0014358211679687506,-0.00016555388976562487,-0.0023495574661718754,5,4
7.864430468749998e-05,-0.00026008890552812504,-0.0006615523529687499,0.00138568245078125,0.00039505708593750005,-0.001016540080234375,5,4
-0.00027955964140625,-0.00010457089177812504,0.001861091183984375,-0.0077054733890625,0.006759402479453125,-0.0002829626340078124,5,4
-0.000522808775546875,0.0005930111567968749,0.001747985251171875,0.003968576684375001,-0.0020804515198437506,-0.0008932341772109375,5,4
0.008059224937734375,-0.04346545093828125,0.04794214840546875,-0.21754611359374998,0.005751052381250002,-0.17957971351562502,5,4
0.002307397392734375,-0.006675019438281251,-0.03108238949296875,-0.09197235634374999,-0.009794766820312498,-0.08896410967265625,5,4
-0.001468552184609375,-0.002756887238125,0.002694252698437499,-0.022345047275000002,0.02544987521875,-0.02673092950078125,5,4
0.00044128151640625014,0.005168051829609374,0.03306906035625,0.004569319839843751,0.020311309717187503,0.0008844049007812498,5,4
0.000502111462265625,0.00292166597,0.0027709261984375,0.01338607142890625,-0.0142444892328125,0.0142635173209375,5,4
4.255139484375004e-05,-0.000627843577265625,-0.002862478588515625,0.012160053230468749,-0.01277570007421875,0.01643501651390625,5,4
0.000361908984609375,-0.00264867274046875,-0.003032467927578125,0.006309954534375,-0.0076454020388281255,0.007270999196874999,5,4
-0.000241921962296875,0.0014063366656249998,-0.0007188969210937502,0.0015403544226562501,-5.988650523437516e-05,-0.001888819034765625,5,4
-0.00042969786034374995,0.00274325560859375,-0.0006160260484375001,0.0007055704001562497,-0.00023846687968749998,-0.001422975205078125,5,4
2.008209453125056e-06,0.00024734988585937496,-0.0006929355975781252,-0.000540479410859375,0.00131070891875,-0.00368426072421875,5,4
0.009868408335937499,-0.01041191745390625,-0.0037719795678124992,0.010593115205390625,-0.027644940875781253,0.24413481093750003,5,6
0.008819337572656249,-0.00385539166875,0.00554575883296875,0.0031884991757812503,-0.01599029885,0.13373983445312498,5,6
-0.007196791351820312,0.0020625096598437505,0.0008554183023437499,-0.0019523537398437496,-0.007244430740625,0.053080836351562494,5,6
-0.0007706032576015626,-0.00069857206796875,0.0015571244578124997,-0.0057318257082968746,0.0031628123518750006,0.010574489408593749,5,6
0.00013043338786718762,-0.0003248422239062501,-0.0002844586851562501,-0.00026178738251562516,-0.0017163329746875,-0.01079746231015625,5,6
-0.0007581677036171874,-0.0006270394111718751,0.0008151729000000001,-0.002067685854609375,0.003485889955859375,-0.01128207951953125,5,6
-0.0006407070804687501,-0.000891165327578125,0.004628836809375,0.00028080784929687496,-0.001322995001171875,-0.007558468257812499,5,6
-0.0005616629765625,0.0005753302757656249,-0.0007748879390625,0.0006305057460937501,-0.00090751545390625,-0.00471055217859375,5,6
-0.0003152656769531251,0.0006728000218593751,-0.0012986291278906249,0.0027190959023437504,-0.004056191089843749,-0.0024971540059375,5,6
2.782051843749995e-05,0.00032717463437499997,-0.00028100745585937504,0.0017261347453125,0.0007662372531249994,0.00036177901484375,5,6
-0.001946901886171875,0.00143062718359375,-0.0060698656670312495,0.004722087840625,0.0056643143859375,-0.0009073132217968751,5,6
-0.004420562568046875,0.0020698261325,-0.007254871662500001,0.0022628037235937503,0.0076598409570312505,-0.0011776619092968752,5,6
0.013946999808593753,-0.015913682220390624,0.0025470864640624994,0.08891972386054686,-0.02897008521171875,0.22290550234375,5,6
0.0011132484921875002,0.00266517806625,-1.195155546875012e-05,0.029205394980390625,-0.026695647278125,0.1198318984375,5,6
-0.00274225274546875,0.000934563178046875,-0.0004421616328124998,-0.004208027092890625,-0.01246495658984375,0.044150285690625,5,6
0.0004109681596796875,-0.000690571174640625,-0.0008219458492187497,-0.015117526240078125,-0.004239265126250001,0.004136562785156251,5,6
-0.00010714270696093746,5.390244543750008e-05,0.0012146802187578127,-0.01065949797578125,-0.0026570303684375,-0.010377419878124999,5,6
9.421602914062499e-05,-0.00013386784703124996,0.00017027079125781253,-0.00527198791953125,-0.000903850022734375,-0.010716127039843749,5,6
0.0003776511764062499,0.00015036286327343767,-0.0010958179970312501,-0.0010646496515625001,0.0006679984827343746,-0.007745710021953125,5,6
-0.000494986180546875,0.0007635341506953125,-0.0008903985047656252,0.00041131232523437507,0.0019688723328125,-0.004324260501484375,5,6
-6.1788351640625e-05,0.00028997119226562484,8.383136429687498e-05,-0.0005585500169531249,0.0014866738156249998,-0.0010203294928125,5,6
0.0005172892357812501,-0.0001386777964609374,0.00011859791187500006,0.0034108005128125,0.0031961605898437493,-0.0016148405039062498,5,6
-0.0023982372243749996,-1.5149128804687565e-05,-0.0016475141884375,0.0008436552667187496,-0.0008115842837187498,0.0008879845429687499,5,6
-0.0003131301286171873,-7.488275984374995e-05,-0.00127742384296875,-0.0034912896368749996,-0.0035413170332499995,0.0032985653421874995,5,6
-0.0018182339304687479,-0.015641077042187496,-0.010586268515625,0.3116614746875,-0.04793872731874999,0.02446758210937499,5,1
0.0164092240109375,0.0047924988125000005,-0.006140506695312502,0.10118290187500001,0.011113086478125,-0.02641663546875,5,1
-0.011097734261718752,-0.0023224364999999986,0.0005135302109375,-0.082919587265625,0.0034448984270312455,-0.004828514351562502,5,1
-0.003840213125000001,0.0090849928984375,0.011397921428125,-0.0668977490078125,-0.015327474307343738,0.007404428437500006,5,1
0.0135566922734375,0.007191953117187499,0.0022340922015624985,1.2547421874981035e-06,-0.023015411335937513,0.01617796646093751,5,1
-0.012403530734375001,0.006271618593750001,-0.01102540476328125,0.0230633340625,4.119687499998248e-06,0.013682364570312508,5,1
0.009649540414062501,-0.0006750673546875004,-0.00763523741484375,-0.0051373805468749945,0.010030856398437506,-0.013554563393749998,5,1
