t,Ax,Ay,Az,Label
2025-09-27T19:15:50.139,1.1299500465393066,3.496950149536133,8.902950286865234,L
2025-09-27T19:15:50.139,1.1910001039505005,3.4990501403808594,8.806050300598145,L
2025-09-27T19:15:50.139,1.2510000467300415,3.501000165939331,8.143050193786621,L
2025-09-27T19:15:50.139,1.3189500570297241,3.5080502033233643,8.10300064086914,L
2025-09-27T19:15:50.139,1.3819500207901,3.516000270843506,8.06100082397461,L
2025-09-27T19:15:50.139,1.4350500106811523,3.5250000953674316,8.019000053405762,L
2025-09-27T19:15:50.139,1.4790000915527344,3.52905011177063,7.981050491333008,L
2025-09-27T19:15:50.139,1.5000001192092896,3.520050048828125,7.948950290679932,L
2025-09-27T19:15:50.139,1.516050100326538,3.5050501823425293,7.938000202178955,L
2025-09-27T19:15:50.139,1.5210000276565552,3.4780502319335938,7.953000545501709,L
2025-09-27T19:15:50.139,1.5079500675201416,3.4420502185821533,7.996950149536133,L
2025-09-27T19:15:50.140,1.477950096130371,3.3960001468658447,8.068950653076172,L
2025-09-27T19:15:50.140,1.4350500106811523,3.3420002460479736,8.1670503616333,L
2025-09-27T19:15:50.140,1.3830000162124634,3.2920501232147217,8.902950286865234,L
2025-09-27T19:15:50.140,1.3150500059127808,3.235950231552124,8.974050521850586,L
2025-09-27T19:15:50.140,1.234950065612793,3.180000066757202,9.070050239562988,L
2025-09-27T19:15:50.140,1.1389501094818115,3.126000165939331,9.75,L
2025-09-27T19:15:50.140,0.46905001997947693,3.061950206756592,9.804000854492188,L
2025-09-27T19:15:50.140,0.4300500154495239,3.0139501094818115,9.877050399780273,L
2025-09-27T19:15:50.140,0.38100001215934753,2.9659502506256104,9.952950477600098,L
2025-09-27T19:15:50.157,0.322050005197525,2.9250001907348633,10.027050018310547,L
2025-09-27T19:15:50.158,0.2530499994754791,2.886000156402588,10.08495044708252,L
2025-09-27T19:15:50.158,0.1789500117301941,2.8429501056671143,10.123050689697266,L
2025-09-27T19:15:50.158,0.11400000751018524,2.805000066757202,10.144050598144531,L
2025-09-27T19:15:50.167,0.05205000191926956,2.776050090789795,10.13700008392334,L
2025-09-27T19:15:50.167,0.0019500000635161996,2.754000186920166,10.10205078125,L
2025-09-27T19:15:50.192,-0.030000001192092896,2.7460501194000244,10.0420503616333,L
2025-09-27T19:15:50.192,-0.05895000323653221,2.743950128555298,9.95205020904541,L
2025-09-27T19:15:50.192,-0.06795000284910202,2.7619500160217285,9.343050003051758,L
2025-09-27T19:15:50.192,-0.05700000375509262,2.788950204849243,9.280050277709961,L
2025-09-27T19:15:50.201,-0.025950001552700996,2.82705020904541,9.196050643920898,L
2025-09-27T19:15:50.201,0.018000001087784767,2.86995005607605,9.094050407409668,L
2025-09-27T19:15:50.230,0.06599999964237213,2.9170501232147217,8.353950500488281,L
2025-09-27T19:15:50.230,0.13005000352859497,2.977950096130371,8.296950340270996,L
2025-09-27T19:15:50.230,0.19305001199245453,3.0420000553131104,8.229000091552734,L
2025-09-27T19:15:50.230,0.2580000162124634,3.115950107574463,8.14905071258545,L
2025-09-27T19:15:50.230,0.3240000009536743,3.1900501251220703,8.071050643920898,L
2025-09-27T19:15:50.230,0.39195001125335693,3.262050151824951,7.993950366973877,L
2025-09-27T19:15:50.352,0.4650000333786011,3.3409502506256104,7.936950206756592,L
2025-09-27T19:15:50.352,0.534000039100647,3.4180500507354736,7.891950607299805,L
2025-09-27T19:15:50.352,0.5920500159263611,3.4930500984191895,7.858950138092041,L
2025-09-27T19:15:50.352,0.6379500031471252,3.559950113296509,7.837950229644775,L
2025-09-27T19:15:50.352,0.6760500073432922,3.616950273513794,7.830000400543213,L
2025-09-27T19:15:50.352,0.7090500593185425,3.6670501232147217,7.831050395965576,L
2025-09-27T19:15:50.352,0.7380000352859497,3.7189502716064453,7.837050437927246,L
2025-09-27T19:15:50.352,0.7630500197410583,3.7639501094818115,7.836000442504883,L
2025-09-27T19:15:50.352,0.7879500389099121,3.799950122833252,7.834050178527832,L
2025-09-27T19:15:50.352,0.8029500246047974,3.8269500732421875,7.8259501457214355,L
2025-09-27T19:15:50.352,0.8220000267028809,3.8550002574920654,7.828050136566162,L
2025-09-27T19:15:50.352,0.8419500589370728,3.8740501403808594,7.837050437927246,L
2025-09-27T19:15:50.353,0.853950023651123,3.8869502544403076,7.858950138092041,L
2025-09-27T19:15:50.353,0.8670000433921814,3.901050090789795,7.894050598144531,L
2025-09-27T19:15:50.353,0.8740500211715698,3.9079501628875732,7.933050155639648,L
2025-09-27T19:15:50.353,0.8730000257492065,3.9160501956939697,7.990950584411621,L
2025-09-27T19:15:50.353,0.8650500178337097,3.9280502796173096,8.06100082397461,L
2025-09-27T19:15:50.353,0.8479500412940979,3.9409501552581787,8.138999938964844,L
2025-09-27T19:15:50.353,0.8209500312805176,3.95805025100708,8.22195053100586,L
2025-09-27T19:15:50.353,0.7840500473976135,3.967050075531006,8.81505012512207,L
2025-09-27T19:15:50.353,0.7480500340461731,3.9820501804351807,8.844000816345215,L
2025-09-27T19:15:50.353,0.7150500416755676,3.996000289916992,8.874000549316406,L
2025-09-27T19:15:50.375,0.6810000538825989,4.008000373840332,8.89905071258545,L
2025-09-27T19:15:50.375,0.6540000438690186,4.02495002746582,8.925000190734863,L
2025-09-27T19:15:50.375,0.6199500560760498,4.0410003662109375,8.950050354003906,L
2025-09-27T19:15:50.375,0.595050036907196,4.066050052642822,8.96505069732666,L
2025-09-27T19:15:50.432,0.5790000557899475,4.093050003051758,8.968050003051758,L
2025-09-27T19:15:50.432,0.5640000104904175,4.114050388336182,8.967000007629395,L
2025-09-27T19:15:50.432,0.5560500025749207,4.138050079345703,8.962950706481934,L
2025-09-27T19:15:50.432,0.5490000247955322,4.1579999923706055,8.952000617980957,L
2025-09-27T19:15:50.432,0.559950053691864,4.177950382232666,8.943000793457031,L
2025-09-27T19:15:50.432,0.5809500217437744,4.201050281524658,8.935050010681152,L
2025-09-27T19:15:50.432,0.612000048160553,4.2210001945495605,8.925000190734863,L
2025-09-27T19:15:50.432,0.6580500602722168,4.237950325012207,8.9170503616333,L
2025-09-27T19:15:50.432,0.7080000042915344,4.252950191497803,8.910000801086426,L
2025-09-27T19:15:50.432,0.7699500322341919,4.278000354766846,8.910000801086426,L
2025-09-27T19:15:50.432,0.8350500464439392,4.297950267791748,8.913000106811523,L
2025-09-27T19:15:50.432,0.9030000567436218,4.320000171661377,8.920950889587402,L
2025-09-27T19:15:50.498,0.9649500250816345,4.330049991607666,8.937000274658203,L
2025-09-27T19:15:50.498,1.0219500064849854,4.3309502601623535,8.956050872802734,L
2025-09-27T19:15:50.498,1.078950047492981,4.332000255584717,8.985000610351562,L
2025-09-27T19:15:50.498,1.1260499954223633,4.323000431060791,9.02400016784668,L
2025-09-27T19:15:50.498,1.1650500297546387,4.312950134277344,9.088950157165527,L
2025-09-27T19:15:50.499,1.1899501085281372,4.2970499992370605,9.171000480651855,L
2025-09-27T19:15:50.499,1.2049500942230225,4.272000312805176,9.77400016784668,L
2025-09-27T19:15:50.499,1.2220500707626343,4.243950366973877,9.849000930786133,L
2025-09-27T19:15:50.499,1.227000117301941,4.215000152587891,9.95205020904541,L
2025-09-27T19:15:50.499,1.2199500799179077,4.183050155639648,10.665000915527344,L
2025-09-27T19:15:50.499,1.207050085067749,4.147950172424316,10.744050979614258,L
2025-09-27T19:15:50.499,1.1809500455856323,4.107000350952148,10.831050872802734,L
2025-09-27T19:15:50.499,1.1530500650405884,4.074000358581543,11.445000648498535,L
2025-09-27T19:15:50.499,1.1149500608444214,4.044000148773193,11.482950210571289,L
2025-09-27T19:15:50.513,1.0690500736236572,4.01894998550415,11.515950202941895,L
2025-09-27T19:15:50.513,1.0120500326156616,4.002000331878662,11.541000366210938,L
2025-09-27T19:15:50.529,0.9409500360488892,3.988950252532959,11.530950546264648,L
2025-09-27T19:15:50.529,0.8640000224113464,3.9900002479553223,11.506050109863281,L
2025-09-27T19:15:50.529,0.7810500264167786,3.9970502853393555,11.44800090789795,L
2025-09-27T19:15:50.529,0.16905000805854797,4.0159502029418945,11.371050834655762,L
2025-09-27T19:15:50.533,0.13905000686645508,4.038000106811523,11.275050163269043,L
2025-09-27T19:15:50.533,0.08100000023841858,4.063050270080566,10.587000846862793,L
2025-09-27T19:15:50.547,0.021000001579523087,4.107000350952148,10.531050682067871,L
2025-09-27T19:15:50.547,-0.0499500036239624,4.1579999923706055,10.453950881958008,L
2025-09-27T19:15:50.552,-0.12195000797510147,4.225950241088867,10.360050201416016,L
2025-09-27T19:15:50.553,-0.19305001199245453,4.305000305175781,9.681000709533691,L
2025-09-27T19:15:50.564,-0.26100000739097595,4.3909502029418945,9.624000549316406,L
2025-09-27T19:15:50.564,-0.31200000643730164,5.00700044631958,9.565950393676758,L
2025-09-27T19:15:50.576,-0.3469500243663788,5.035950183868408,9.496950149536133,L
2025-09-27T19:15:50.576,-0.3679500222206116,5.068950176239014,9.432000160217285,L
2025-09-27T19:15:50.587,-0.36900001764297485,5.09505033493042,9.379050254821777,L
2025-09-27T19:15:50.587,-0.3540000021457672,5.107950210571289,9.340950012207031,L
2025-09-27T19:15:50.719,-0.30900001525878906,5.11305046081543,9.34005069732666,L
2025-09-27T19:15:50.719,-0.24900001287460327,5.09505033493042,9.390000343322754,L
2025-09-27T19:15:50.719,-0.1789500117301941,5.0560503005981445,9.50100040435791,L
2025-09-27T19:15:50.719,-0.10305000841617584,4.999950408935547,10.366050720214844,L
2025-09-27T19:15:50.719,-0.022950001060962677,4.920000076293945,10.510950088500977,L
2025-09-27T19:15:50.719,0.05100000277161598,4.833000183105469,11.62695026397705,L
2025-09-27T19:15:50.719,0.1189500093460083,4.2109503746032715,12.2989501953125,L
2025-09-27T19:15:50.719,0.17595000565052032,4.162050247192383,12.970050811767578,L
2025-09-27T19:15:50.719,0.226950004696846,4.0980000495910645,13.134000778198242,L
2025-09-27T19:15:50.728,0.26295000314712524,4.021049976348877,14.24100112915039,L
2025-09-27T19:15:50.728,0.29295000433921814,3.9409501552581787,14.370000839233398,L
2025-09-27T19:15:50.728,0.2970000207424164,3.8490002155303955,15.165000915527344,L
2025-09-27T19:15:50.728,0.28200000524520874,3.2149500846862793,15.22605037689209,L
2025-09-27T19:15:50.728,0.25200000405311584,3.178950071334839,15.2760009765625,L
2025-09-27T19:15:50.728,0.1969500035047531,3.1279501914978027,15.285000801086426,L
2025-09-27T19:15:50.728,0.14400000870227814,3.0730502605438232,15.259950637817383,L
2025-09-27T19:15:50.729,0.08295000344514847,3.0210001468658447,15.18795108795166,L
2025-09-27T19:15:50.729,0.027000000700354576,2.971950054168701,15.06195068359375,L
2025-09-27T19:15:50.729,-0.018000001087784767,2.9230501651763916,14.12700080871582,L
2025-09-27T19:15:50.729,-0.0580500029027462,2.880000114440918,14.005050659179688,L
2025-09-27T19:15:50.729,-0.08895000070333481,2.8540501594543457,13.147050857543945,L
2025-09-27T19:15:50.729,-0.10905000567436218,2.836050033569336,13.020000457763672,L
2025-09-27T19:15:50.729,-0.11100000888109207,2.8249502182006836,12.115050315856934,L
2025-09-27T19:15:50.729,-0.10395000129938126,2.826000213623047,11.995050430297852,L
2025-09-27T19:15:50.729,-0.09795000404119492,2.8380000591278076,11.158950805664062,L
2025-09-27T19:15:50.729,-0.07800000160932541,2.866950035095215,11.043000221252441,L
2025-09-27T19:15:50.729,-0.05100000277161598,2.8999500274658203,10.261950492858887,L
2025-09-27T19:15:50.729,-0.013050000183284283,2.934000253677368,10.16295051574707,L
2025-09-27T19:15:50.737,0.031050002202391624,2.977950096130371,9.502050399780273,L
2025-09-27T19:15:50.737,0.07304999977350235,3.015000104904175,9.409950256347656,L
2025-09-27T19:15:50.753,0.12600000202655792,3.0580501556396484,9.298050880432129,L
2025-09-27T19:15:50.753,0.1870500147342682,3.1030502319335938,8.51294994354248,L
2025-09-27T19:15:50.757,0.24795001745224,3.1470000743865967,8.440950393676758,L
2025-09-27T19:15:50.758,0.31095001101493835,3.1909501552581787,8.356950759887695,L
2025-09-27T19:15:50.770,0.37800002098083496,3.2320501804351807,8.26200008392334,L
2025-09-27T19:15:50.770,0.453000009059906,3.277050256729126,7.639050483703613,L
2025-09-27T19:15:50.778,0.5350500345230103,3.3160500526428223,7.6210503578186035,L
2025-09-27T19:15:50.778,0.6220500469207764,3.3510000705718994,7.6110005378723145,L
2025-09-27T19:15:50.787,1.2220500707626343,3.3760502338409424,7.61400032043457,L
2025-09-27T19:15:50.788,1.2439500093460083,3.391050100326538,7.627950191497803,L
2025-09-27T19:15:50.796,1.276050090789795,3.4039502143859863,7.666950225830078,L
2025-09-27T19:15:50.796,1.3099501132965088,3.4180500507354736,7.725000381469727,L
2025-09-27T19:15:50.806,1.3459500074386597,3.4230000972747803,7.801950454711914,L
2025-09-27T19:15:50.806,1.377000093460083,3.4210500717163086,7.893000602722168,L
2025-09-27T19:15:50.921,1.3990501165390015,3.3990001678466797,8.52495002746582,L
2025-09-27T19:15:50.921,1.4160000085830688,3.3730502128601074,8.571000099182129,L
2025-09-27T19:15:50.921,1.426050066947937,3.3330001831054688,8.640000343322754,L
2025-09-27T19:15:50.921,1.4149500131607056,3.283950090408325,8.719950675964355,L
2025-09-27T19:15:50.921,1.3900500535964966,3.229950189590454,8.81505012512207,L
2025-09-27T19:15:50.921,1.3459500074386597,3.169950246810913,9.454950332641602,L
2025-09-27T19:15:50.921,1.294950008392334,3.1120500564575195,9.499950408935547,L
2025-09-27T19:15:50.921,1.2360000610351562,3.049950122833252,9.565950393676758,L
2025-09-27T19:15:50.921,1.1749500036239624,2.991000175476074,9.643050193786621,L
2025-09-27T19:15:50.921,1.1149500608444214,2.92995023727417,9.72705078125,L
2025-09-27T19:15:50.921,1.0360500812530518,2.863950252532959,9.8100004196167,L
2025-09-27T19:15:50.921,0.9570000171661377,2.806950092315674,9.894000053405762,L
2025-09-27T19:15:50.921,0.8710500597953796,2.746950149536133,9.9660005569458,L
2025-09-27T19:15:50.922,0.25095000863075256,2.686950206756592,10.021950721740723,L
2025-09-27T19:15:50.922,0.22200001776218414,2.640000104904175,10.057950019836426,L
2025-09-27T19:15:50.922,0.18300001323223114,2.5890002250671387,10.069050788879395,L
2025-09-27T19:15:50.922,0.14100000262260437,2.5450501441955566,10.059000015258789,L
2025-09-27T19:15:50.922,0.09195000678300858,2.505000114440918,10.026000022888184,L
2025-09-27T19:15:50.922,0.036000002175569534,2.4690001010894775,9.9660005569458,L
2025-09-27T19:15:50.922,-0.025050001218914986,2.434950113296509,9.885000228881836,L
2025-09-27T19:15:50.940,-0.0880500078201294,2.4049501419067383,9.77595043182373,L
2025-09-27T19:15:50.940,-0.14205001294612885,2.388000011444092,9.058050155639648,L
2025-09-27T19:15:50.940,-0.19095000624656677,2.376000165939331,9.00195026397705,L
2025-09-27T19:15:50.940,-0.23100000619888306,2.370000123977661,8.926050186157227,L
2025-09-27T19:15:50.940,-0.2639999985694885,2.3650500774383545,8.844000816345215,L
2025-09-27T19:15:50.940,-0.2970000207424164,2.362950086593628,8.748000144958496,L
2025-09-27T19:15:50.950,-0.322050005197525,2.370000123977661,8.128050804138184,L
2025-09-27T19:15:50.950,-0.32895001769065857,2.3839499950408936,8.104050636291504,L
2025-09-27T19:15:50.963,-0.33105000853538513,2.4060001373291016,8.07705020904541,L
2025-09-27T19:15:50.963,-0.3270000219345093,2.430000066757202,8.047950744628906,L
2025-09-27T19:15:50.970,-0.31905001401901245,2.4529500007629395,8.002950668334961,L
2025-09-27T19:15:50.970,-0.30300000309944153,2.482950210571289,7.959000587463379,L
2025-09-27T19:15:50.979,-0.2770500183105469,2.509050130844116,7.908000469207764,L
2025-09-27T19:15:50.979,-0.24195000529289246,2.53695011138916,7.855050563812256,L
2025-09-27T19:15:50.989,-0.20400001108646393,2.5660500526428223,7.795950412750244,L
2025-09-27T19:15:50.989,-0.1660500019788742,2.5960500240325928,7.732950210571289,L
2025-09-27T19:15:51.091,-0.12105000764131546,2.634000062942505,7.666950225830078,L
2025-09-27T19:15:51.091,-0.07005000114440918,2.674950122833252,7.597950458526611,L
2025-09-27T19:15:51.097,-0.022050000727176666,2.7150001525878906,7.52400016784668,L
2025-09-27T19:15:51.097,0.022950001060962677,2.7529501914978027,7.456050395965576,L
2025-09-27T19:15:51.097,0.05400000140070915,2.7840001583099365,7.384950160980225,L
2025-09-27T19:15:51.097,0.08595000207424164,2.8159501552581787,7.321950435638428,L
2025-09-27T19:15:51.097,0.10695000737905502,2.8530001640319824,7.267950534820557,L
2025-09-27T19:15:51.097,0.1270500123500824,2.890050172805786,7.222050189971924,L
2025-09-27T19:15:51.097,0.1360500007867813,2.9280002117156982,7.192050457000732,L
2025-09-27T19:15:51.097,0.1360500007867813,2.965050220489502,7.183050155639648,L
2025-09-27T19:15:51.097,0.14295001327991486,3.0079500675201416,7.198050498962402,L
2025-09-27T19:15:51.097,0.1489500105381012,3.0520501136779785,7.231050491333008,L
2025-09-27T19:15:51.097,0.15195000171661377,3.091050148010254,7.288050174713135,L
2025-09-27T19:15:51.097,0.1579500138759613,3.1300501823425293,7.360050201416016,L
2025-09-27T19:15:51.097,0.15300001204013824,3.160950183868408,7.444950580596924,L
2025-09-27T19:15:51.097,0.14805001020431519,3.1939501762390137,7.534950256347656,L
2025-09-27T19:15:51.097,0.13500000536441803,3.2220001220703125,8.12700080871582,L
2025-09-27T19:15:51.097,0.11595000326633453,3.2440502643585205,8.14905071258545,L
2025-09-27T19:15:51.097,0.0970500037074089,3.271050214767456,8.170949935913086,L
2025-09-27T19:15:51.097,0.07095000147819519,3.2920501232147217,8.188050270080566,L
2025-09-27T19:15:51.099,0.04305000230669975,3.3199501037597656,8.211000442504883,L
2025-09-27T19:15:51.099,0.019050000235438347,3.3490500450134277,8.232000350952148,L
2025-09-27T19:15:51.113,-0.006000000052154064,3.3799500465393066,8.251049995422363,L
2025-09-27T19:15:51.113,-0.028950002044439316,3.4110002517700195,8.266950607299805,L
2025-09-27T19:15:51.127,-0.05100000277161598,3.444000244140625,8.278950691223145,L
2025-09-27T19:15:51.127,-0.07095000147819519,3.4830002784729004,8.29800033569336,L
2025-09-27T19:15:51.136,-0.09300000220537186,3.5209500789642334,8.320050239562988,L
2025-09-27T19:15:51.136,-0.11700000613927841,3.553950071334839,8.341950416564941,L
2025-09-27T19:15:51.141,-0.14505000412464142,3.5850002765655518,8.380949974060059,L
2025-09-27T19:15:51.141,-0.1860000044107437,3.6130502223968506,8.421000480651855,L
