t,Ax,Ay,Az,Label
2025-09-27T19:15:47.107,-1.6080000400543213,2.01104998588562,9.087000846862793,L
2025-09-27T19:15:47.107,-1.5430500507354736,2.0749499797821045,9.032999992370605,L
2025-09-27T19:15:47.117,-1.4760000705718994,2.1349501609802246,8.973000526428223,L
2025-09-27T19:15:47.118,-1.4020500183105469,2.205000162124634,8.913000106811523,L
2025-09-27T19:15:47.144,-1.3290001153945923,2.2770001888275146,8.857950210571289,L
2025-09-27T19:15:47.144,-1.2559500932693481,2.3479502201080322,8.805000305175781,L
2025-09-27T19:15:47.144,-1.1850000619888306,2.4180002212524414,8.752050399780273,L
2025-09-27T19:15:47.144,-1.117050051689148,2.4790501594543457,8.694000244140625,L
2025-09-27T19:15:47.146,-1.0420500040054321,2.54295015335083,8.644950866699219,L
2025-09-27T19:15:47.146,-0.9619500637054443,2.6070001125335693,8.595000267028809,L
2025-09-27T19:15:47.167,-0.8869500160217285,2.6710500717163086,8.5489501953125,L
2025-09-27T19:15:47.167,-0.8110500574111938,2.7430500984191895,8.50200080871582,L
2025-09-27T19:15:47.178,-0.7429500222206116,2.811000108718872,8.455050468444824,L
2025-09-27T19:15:47.178,-0.6810000538825989,2.8819501399993896,8.419050216674805,L
2025-09-27T19:15:47.178,-0.625950038433075,2.956050157546997,8.38800048828125,L
2025-09-27T19:15:47.178,-0.5760000348091125,3.031050205230713,8.361000061035156,L
2025-09-27T19:15:47.192,-0.5299500226974487,3.1020002365112305,8.344050407409668,L
2025-09-27T19:15:47.192,-0.492000013589859,3.1630501747131348,8.326950073242188,L
2025-09-27T19:15:47.307,-0.4519500136375427,3.223950147628784,8.319000244140625,L
2025-09-27T19:15:47.311,-0.4140000343322754,3.2790000438690186,8.319000244140625,L
2025-09-27T19:15:47.311,-0.38100001215934753,3.330000162124634,8.337000846862793,L
2025-09-27T19:15:47.311,-0.35895001888275146,3.375000238418579,8.380050659179688,L
2025-09-27T19:15:47.311,-0.3450000286102295,3.4050002098083496,8.443050384521484,L
2025-09-27T19:15:47.311,-0.33000001311302185,3.4330501556396484,8.539950370788574,L
2025-09-27T19:15:47.311,-0.31005001068115234,3.453000068664551,9.232950210571289,L
2025-09-27T19:15:47.311,-0.2760000228881836,3.466050148010254,9.309000015258789,L
2025-09-27T19:15:47.311,-0.23595000803470612,3.4669501781463623,9.41295051574707,L
2025-09-27T19:15:47.311,-0.18405000865459442,3.4609501361846924,10.114950180053711,L
2025-09-27T19:15:47.311,-0.12300000339746475,3.454050064086914,10.186050415039062,L
2025-09-27T19:15:47.318,-0.05205000191926956,3.4450502395629883,10.276050567626953,L
2025-09-27T19:15:47.318,0.028050001710653305,3.436950206756592,10.927950859069824,L
2025-09-27T19:15:47.318,0.11100000888109207,3.432000160217285,10.993050575256348,L
2025-09-27T19:15:47.318,0.18900001049041748,3.418950080871582,11.07300090789795,L
2025-09-27T19:15:47.318,0.26295000314712524,3.4140002727508545,11.175000190734863,L
2025-09-27T19:15:47.318,0.325950026512146,3.403050184249878,11.878950119018555,L
2025-09-27T19:15:47.318,0.3769500255584717,3.3859500885009766,11.932050704956055,L
2025-09-27T19:15:47.318,0.4069500267505646,3.358950138092041,12.010050773620605,L
2025-09-27T19:15:47.318,0.4159500300884247,3.321000099182129,12.093000411987305,L
2025-09-27T19:15:47.318,0.40995001792907715,3.2760002613067627,12.189000129699707,L
2025-09-27T19:15:47.318,0.38805001974105835,3.2290501594543457,12.826050758361816,L
2025-09-27T19:15:47.318,0.35100001096725464,3.1740002632141113,12.841950416564941,L
2025-09-27T19:15:47.318,0.2959500253200531,3.1090500354766846,12.856950759887695,L
2025-09-27T19:15:47.334,0.22095000743865967,3.031050205230713,12.853050231933594,L
2025-09-27T19:15:47.334,0.1380000114440918,2.955000162124634,12.841950416564941,L
2025-09-27T19:15:47.334,-0.4650000333786011,2.8720500469207764,12.814950942993164,L
2025-09-27T19:15:47.334,-0.5100000500679016,2.7870001792907715,12.778050422668457,L
2025-09-27T19:15:47.342,-0.5680500268936157,2.1859500408172607,12.726000785827637,L
2025-09-27T19:15:47.352,-0.6420000195503235,2.1559500694274902,12.664051055908203,L
2025-09-27T19:15:47.356,-0.7219500541687012,2.127000093460083,12.600000381469727,L
2025-09-27T19:15:47.356,-0.8160000443458557,2.0940001010894775,12.53700065612793,L
2025-09-27T19:15:47.360,-1.429050087928772,2.056950092315674,12.469950675964355,L
2025-09-27T19:15:47.360,-1.4560500383377075,2.01705002784729,12.402000427246094,L
2025-09-27T19:15:47.367,-1.4910000562667847,1.9720500707626343,12.330000877380371,L
2025-09-27T19:15:47.367,-1.53000009059906,1.9230000972747803,12.267000198364258,L
2025-09-27T19:15:47.378,-1.5630000829696655,1.8750001192092896,12.210000991821289,L
2025-09-27T19:15:47.378,-1.6000500917434692,1.828950047492981,12.160050392150879,L
2025-09-27T19:15:47.389,-1.6290000677108765,1.7839500904083252,12.115950584411621,L
2025-09-27T19:15:47.390,-1.659000039100647,1.735050082206726,12.063000679016113,L
2025-09-27T19:15:47.466,-1.67205011844635,1.6960500478744507,12.012001037597656,L
2025-09-27T19:15:47.467,-1.6810500621795654,1.6600500345230103,11.958000183105469,L
2025-09-27T19:15:47.467,-1.6810500621795654,1.6290000677108765,11.902950286865234,L
2025-09-27T19:15:47.476,-1.6710001230239868,1.6009501218795776,11.84595012664795,L
2025-09-27T19:15:47.476,-1.6560001373291016,1.5679501295089722,11.784000396728516,L
2025-09-27T19:15:47.476,-1.6260000467300415,1.5430500507354736,11.713050842285156,L
2025-09-27T19:15:47.476,-1.5829501152038574,1.5169501304626465,11.635950088500977,L
2025-09-27T19:15:47.476,-1.5280500650405884,1.4940000772476196,11.559000968933105,L
2025-09-27T19:15:47.476,-1.4730000495910645,1.4740500450134277,11.485050201416016,L
2025-09-27T19:15:47.476,-1.4220000505447388,1.4490001201629639,11.413050651550293,L
2025-09-27T19:15:47.476,-1.366050124168396,1.4269500970840454,11.356950759887695,L
2025-09-27T19:15:47.476,-1.3150500059127808,1.4029500484466553,11.308050155639648,L
2025-09-27T19:15:47.476,-1.2790501117706299,1.384950041770935,11.269950866699219,L
2025-09-27T19:15:47.476,-1.2510000467300415,1.366050124168396,11.244000434875488,L
2025-09-27T19:15:47.476,-1.2450000047683716,1.3410000801086426,11.224050521850586,L
2025-09-27T19:15:47.476,-1.2469500303268433,1.3180500268936157,11.22195053100586,L
2025-09-27T19:15:47.487,-1.2580500841140747,1.297950029373169,11.229000091552734,L
2025-09-27T19:15:47.487,-1.2820500135421753,1.2739500999450684,11.244000434875488,L
2025-09-27T19:15:47.493,-1.308000087738037,1.2450000047683716,11.269050598144531,L
2025-09-27T19:15:47.493,-1.3410000801086426,1.2130500078201294,11.290950775146484,L
2025-09-27T19:15:47.501,-1.3720500469207764,1.1820000410079956,11.32395076751709,L
2025-09-27T19:15:47.501,-1.4059500694274902,1.1479500532150269,11.361001014709473,L
2025-09-27T19:15:47.520,-1.4470500946044922,1.1089500188827515,11.40195083618164,L
2025-09-27T19:15:47.520,-1.489050030708313,1.0699501037597656,11.440950393676758,L
2025-09-27T19:15:47.525,-1.5370501279830933,1.0290000438690186,11.475000381469727,L
2025-09-27T19:15:47.525,-1.5840001106262207,0.987000048160553,11.51205062866211,L
2025-09-27T19:15:47.529,-1.6249500513076782,0.9420000314712524,11.5420503616333,L
2025-09-27T19:15:47.529,-1.6609500646591187,0.9000000357627869,11.568000793457031,L
2025-09-27T19:15:47.552,-1.696950078010559,0.8610000610351562,11.586000442504883,L
2025-09-27T19:15:47.552,-1.738050103187561,0.817050039768219,11.595000267028809,L
2025-09-27T19:15:47.556,-1.7670000791549683,0.7849500179290771,11.595000267028809,L
2025-09-27T19:15:47.556,-1.7920501232147217,0.7579500079154968,11.575950622558594,L
2025-09-27T19:15:47.561,-1.807050108909607,0.7339500188827515,11.536050796508789,L
2025-09-27T19:15:47.561,-1.8130500316619873,0.7129500508308411,11.476950645446777,L
2025-09-27T19:15:47.674,-1.8090001344680786,0.6919500231742859,11.401050567626953,L
2025-09-27T19:15:47.674,-1.7830500602722168,0.6810000538825989,11.314950942993164,L
2025-09-27T19:15:47.674,-1.735050082206726,0.6709500551223755,10.672950744628906,L
2025-09-27T19:15:47.674,-1.6710001230239868,0.6769500374794006,10.615950584411621,L
2025-09-27T19:15:47.674,-1.5859500169754028,0.6919500231742859,10.533000946044922,L
2025-09-27T19:15:47.674,-1.495050072669983,0.7200000286102295,10.422000885009766,L
2025-09-27T19:15:47.674,-0.8350500464439392,0.7600500583648682,9.658950805664062,L
2025-09-27T19:15:47.674,-0.7950000166893005,0.8149500489234924,9.595050811767578,L
2025-09-27T19:15:47.674,-0.7549500465393066,0.8749500513076782,9.508050918579102,L
2025-09-27T19:15:47.674,-0.7080000042915344,0.9390000700950623,9.405000686645508,L
2025-09-27T19:15:47.674,-0.6670500040054321,1.0030500888824463,8.725950241088867,L
2025-09-27T19:15:47.674,-0.6240000128746033,1.0770000219345093,8.68695068359375,L
2025-09-27T19:15:47.674,-0.5890500545501709,1.1569499969482422,8.63895034790039,L
2025-09-27T19:15:47.674,-0.5629500150680542,1.2340500354766846,8.583000183105469,L
2025-09-27T19:15:47.674,-0.5490000247955322,1.311000108718872,8.529000282287598,L
2025-09-27T19:15:47.674,-0.5520000457763672,1.3830000162124634,8.467050552368164,L
2025-09-27T19:15:47.675,-0.5620500445365906,1.4610000848770142,8.413050651550293,L
2025-09-27T19:15:47.675,-0.5890500545501709,1.533000111579895,8.368050575256348,L
2025-09-27T19:15:47.675,-0.62295001745224,1.603950023651123,8.331000328063965,L
2025-09-27T19:15:47.675,-0.6640500426292419,1.672950029373169,8.299050331115723,L
2025-09-27T19:15:47.675,-0.7219500541687012,1.7310000658035278,8.278050422668457,L
2025-09-27T19:15:47.675,-0.781950056552887,1.801050066947937,8.27595043182373,L
2025-09-27T19:15:47.683,-0.8520000576972961,1.864050030708313,8.289000511169434,L
2025-09-27T19:15:47.683,-0.9220500588417053,1.924950122833252,8.320050239562988,L
2025-09-27T19:15:47.710,-0.9979500770568848,1.9800001382827759,8.374950408935547,L
2025-09-27T19:15:47.710,-1.0830000638961792,2.0209500789642334,8.452950477600098,L
2025-09-27T19:15:47.710,-1.162950038909912,2.055000066757202,8.551050186157227,L
2025-09-27T19:15:47.710,-1.2450000047683716,2.0789999961853027,9.211950302124023,L
2025-09-27T19:15:47.726,-1.327950119972229,2.0940001010894775,9.253950119018555,L
2025-09-27T19:15:47.726,-1.4080500602722168,2.101950168609619,9.310050010681152,L
2025-09-27T19:15:47.737,-2.0179500579833984,2.095950126647949,9.3589506149292,L
2025-09-27T19:15:47.737,-2.0380501747131348,2.0940001010894775,9.409049987792969,L
2025-09-27T19:15:47.737,-2.0680501461029053,2.095050096511841,9.45300006866455,L
2025-09-27T19:15:47.737,-2.107950210571289,2.0929501056671143,9.478950500488281,L
2025-09-27T19:15:47.760,-2.1510000228881836,2.0940001010894775,9.490050315856934,L
2025-09-27T19:15:47.760,-2.1949501037597656,2.092050075531006,9.490050315856934,L
2025-09-27T19:15:47.766,-2.2320001125335693,2.101950168609619,9.484950065612793,L
2025-09-27T19:15:47.766,-2.25600004196167,2.110949993133545,9.472050666809082,L
2025-09-27T19:15:47.766,-2.2680001258850098,2.1289501190185547,9.454950332641602,L
2025-09-27T19:15:47.766,-2.2759501934051514,2.1469500064849854,9.439949989318848,L
2025-09-27T19:15:47.848,-2.2789502143859863,2.16195011138916,9.42300033569336,L
2025-09-27T19:15:47.848,-2.2710001468658447,2.1880500316619873,9.412050247192383,L
2025-09-27T19:15:47.848,-2.26200008392334,2.221950054168701,9.414000511169434,L
2025-09-27T19:15:47.848,-2.2519500255584717,2.2540500164031982,9.421950340270996,L
2025-09-27T19:15:47.848,-2.2360501289367676,2.2900500297546387,9.4350004196167,L
2025-09-27T19:15:47.848,-2.2260000705718994,2.3239500522613525,9.442049980163574,L
2025-09-27T19:15:47.848,-2.2139999866485596,2.3550000190734863,9.462000846862793,L
2025-09-27T19:15:47.848,-2.1949501037597656,2.388000011444092,9.49905014038086,L
2025-09-27T19:15:47.848,-2.184000015258789,2.4190502166748047,9.56100082397461,L
2025-09-27T19:15:47.848,-2.1760501861572266,2.439000129699707,9.64995002746582,L
2025-09-27T19:15:47.850,-2.1859500408172607,2.4460501670837402,10.28700065612793,L
2025-09-27T19:15:47.850,-2.200050115585327,2.4460501670837402,10.357050895690918,L
2025-09-27T19:15:47.850,-2.2210500240325928,2.436000108718872,10.455000877380371,L
2025-09-27T19:15:47.850,-2.25,2.4220499992370605,11.124000549316406,L
2025-09-27T19:15:47.850,-2.2740001678466797,2.3940000534057617,11.200050354003906,L
2025-09-27T19:15:47.850,-2.2980000972747803,2.3550000190734863,11.28795051574707,L
2025-09-27T19:15:47.863,-2.313000202178955,2.320050001144409,11.892000198364258,L
2025-09-27T19:15:47.863,-2.320050001144409,2.2829999923706055,11.944050788879395,L
2025-09-27T19:15:47.866,-2.3170502185821533,2.241000175476074,11.998950958251953,L
2025-09-27T19:15:47.866,-2.307000160217285,2.199000120162964,12.061050415039062,L
2025-09-27T19:15:47.876,-2.2860000133514404,2.1529500484466553,12.121050834655762,L
2025-09-27T19:15:47.876,-2.2540500164031982,2.115000009536743,12.192000389099121,L
2025-09-27T19:15:47.887,-2.209050178527832,2.07705020904541,12.256050109863281,L
2025-09-27T19:15:47.887,-2.1529500484466553,2.038950204849243,12.319951057434082,L
2025-09-27T19:15:47.909,-2.089050054550171,1.9990501403808594,12.382950782775879,L
2025-09-27T19:15:47.909,-2.026050090789795,1.9579501152038574,12.430950164794922,L
2025-09-27T19:15:47.909,-1.9620001316070557,1.9210500717163086,12.478050231933594,L
2025-09-27T19:15:47.909,-1.9000500440597534,1.8850500583648682,12.49905014038086,L
2025-09-27T19:15:47.916,-1.8439500331878662,1.8570001125335693,12.50100040435791,L
2025-09-27T19:15:47.916,-1.7880001068115234,1.8270001411437988,12.475050926208496,L
2025-09-27T19:15:47.931,-1.7340000867843628,1.804050087928772,12.41295051574707,L
2025-09-27T19:15:47.931,-1.6770000457763672,1.7850000858306885,12.333000183105469,L
2025-09-27T19:15:47.938,-1.6230000257492065,1.7670000791549683,12.229050636291504,L
2025-09-27T19:15:47.938,-1.5730500221252441,1.749000072479248,11.485950469970703,L
2025-09-27T19:15:48.058,-1.5289500951766968,1.7299500703811646,11.431050300598145,L
2025-09-27T19:15:48.058,-1.4910000562667847,1.7170500755310059,11.353950500488281,L
2025-09-27T19:15:48.058,-1.443000078201294,1.7160000801086426,11.266950607299805,L
2025-09-27T19:15:48.058,-1.3920000791549683,1.7209501266479492,11.1739501953125,L
2025-09-27T19:15:48.058,-1.3369500637054443,1.735050082206726,10.554000854492188,L
2025-09-27T19:15:48.058,-1.2859500646591187,1.7440500259399414,10.52400016784668,L
2025-09-27T19:15:48.058,-1.234950065612793,1.7530500888824463,10.486050605773926,L
2025-09-27T19:15:48.058,-1.1790000200271606,1.7770501375198364,10.455000877380371,L
2025-09-27T19:15:48.058,-1.1149500608444214,1.798050045967102,10.423050880432129,L
2025-09-27T19:15:48.058,-1.055999994277954,1.818000078201294,10.395000457763672,L
2025-09-27T19:15:48.058,-0.9979500770568848,1.8439500331878662,10.360950469970703,L
2025-09-27T19:15:48.058,-0.9450000524520874,1.8619500398635864,10.329000473022461,L
2025-09-27T19:15:48.058,-0.8910000324249268,1.8840000629425049,10.30305004119873,L
2025-09-27T19:15:48.058,-0.8370000123977661,1.9009500741958618,10.279950141906738,L
2025-09-27T19:15:48.058,-0.7840500473976135,1.9230000972747803,10.2610502243042,L
2025-09-27T19:15:48.058,-0.7339500188827515,1.9480501413345337,10.243950843811035,L
2025-09-27T19:15:48.059,-0.6919500231742859,1.9590001106262207,10.224000930786133,L
2025-09-27T19:15:48.059,-0.6409500241279602,1.9810501337051392,10.221000671386719,L
2025-09-27T19:15:48.059,-0.5839500427246094,2.009999990463257,10.22295093536377,L
2025-09-27T19:15:48.059,-0.527999997138977,2.035950183868408,10.228950500488281,L
2025-09-27T19:15:48.059,-0.4630500078201294,2.058000087738037,10.234950065612793,L
2025-09-27T19:15:48.059,-0.4030500054359436,2.0779500007629395,10.243050575256348,L
2025-09-27T19:15:48.069,-0.3349500298500061,2.101950168609619,10.258950233459473,L
2025-09-27T19:15:48.069,-0.27195000648498535,2.1250500679016113,10.27500057220459,L
2025-09-27T19:15:48.069,-0.20805001258850098,2.146050214767456,10.294950485229492,L
2025-09-27T19:15:48.069,-0.14295001327991486,2.1760501861572266,10.318950653076172,L
2025-09-27T19:15:48.078,-0.08400000631809235,2.202000141143799,10.335000038146973,L
2025-09-27T19:15:48.078,-0.022950001060962677,2.2390501499176025,10.359000205993652,L
2025-09-27T19:15:48.093,0.040950000286102295,2.2770001888275146,10.381950378417969,L
2025-09-27T19:15:48.093,0.11295000463724136,2.3140501976013184,10.404000282287598,L
2025-09-27T19:15:48.097,0.17595000565052032,2.3519999980926514,10.42905044555664,L
2025-09-27T19:15:48.097,0.23100000619888306,2.385000228881836,10.444050788879395,L
