t,Ax,Ay,Az,Label
2025-09-27T19:18:49.462,9.748050689697266,13.414051055908203,4.027950286865234,R
2025-09-27T19:18:49.462,9.607050895690918,13.369050979614258,3.309000253677368,R
2025-09-27T19:18:49.462,8.47800064086914,13.28700065612793,3.201000213623047,R
2025-09-27T19:18:49.462,7.6810503005981445,12.649950981140137,3.100950241088867,R
2025-09-27T19:18:49.462,6.8359503746032715,12.562050819396973,3.0330002307891846,R
2025-09-27T19:18:49.462,5.914950370788574,11.904000282287598,3.007050037384033,R
2025-09-27T19:18:49.462,4.986000061035156,11.81100082397461,3.0319502353668213,R
2025-09-27T19:18:49.462,4.024050235748291,11.130000114440918,3.118950128555298,R
2025-09-27T19:18:49.462,3.0700502395629883,11.022000312805176,3.811950206756592,R
2025-09-27T19:18:49.462,2.1160500049591064,10.344000816345215,3.9400501251220703,R
2025-09-27T19:18:49.462,1.1809500455856323,10.255050659179688,4.920000076293945,R
2025-09-27T19:18:49.462,0.26295000314712524,10.135050773620605,5.079000473022461,R
2025-09-27T19:18:49.462,-0.5869500041007996,9.295050621032715,6.217950344085693,R
2025-09-27T19:18:49.462,-1.3039500713348389,9.20895004272461,6.3760504722595215,R
2025-09-27T19:18:49.472,-1.4550000429153442,9.100950241088867,7.414950370788574,R
2025-09-27T19:18:49.472,-2.364000082015991,8.359050750732422,7.531050205230713,R
2025-09-27T19:18:49.479,-2.4439501762390137,8.28795051574707,8.152950286865234,R
2025-09-27T19:18:49.479,-2.509050130844116,8.200950622558594,8.155050277709961,R
2025-09-27T19:18:49.586,-2.556000232696533,8.095050811767578,8.089950561523438,R
2025-09-27T19:18:49.586,-2.5600500106811523,7.393050193786621,7.431000232696533,R
2025-09-27T19:18:49.586,-2.512050151824951,7.344000339508057,7.270050525665283,R
2025-09-27T19:18:49.586,-2.4160501956939697,7.2870001792907715,6.055050373077393,R
2025-09-27T19:18:49.586,-1.6920000314712524,7.2300004959106445,5.308950424194336,R
2025-09-27T19:18:49.586,-1.5970500707626343,7.168050289154053,4.615950107574463,R
2025-09-27T19:18:49.586,-0.9019500613212585,7.119000434875488,4.483050346374512,R
2025-09-27T19:18:49.586,-0.8029500246047974,7.07295036315918,3.7080001831054688,R
2025-09-27T19:18:49.586,-0.13199999928474426,7.039950370788574,3.6670501232147217,R
2025-09-27T19:18:49.586,-0.04800000041723251,7.009050369262695,3.6750001907348633,R
2025-09-27T19:18:49.586,0.05595000088214874,6.975000381469727,3.753000259399414,R
2025-09-27T19:18:49.586,0.7969500422477722,6.94005012512207,4.565999984741211,R
2025-09-27T19:18:49.586,0.8700000643730164,6.897000312805176,5.3110504150390625,R
2025-09-27T19:18:49.586,0.970050036907196,6.853050231933594,6.1620001792907715,R
2025-09-27T19:18:49.586,1.6440000534057617,6.811950206756592,7.000950336456299,R
2025-09-27T19:18:49.586,1.7089500427246094,6.783000469207764,7.798050403594971,R
2025-09-27T19:18:49.586,1.8190500736236572,6.781050205230713,8.526000022888184,R
2025-09-27T19:18:49.586,2.559000015258789,6.820950508117676,8.68695068359375,R
2025-09-27T19:18:49.586,2.6299500465393066,6.918000221252441,9.78600025177002,R
2025-09-27T19:18:49.586,2.7109501361846924,7.8160505294799805,9.937950134277344,R
2025-09-27T19:18:49.610,2.770050048828125,8.617950439453125,10.912050247192383,R
2025-09-27T19:18:49.610,2.7970502376556396,9.636000633239746,11.014050483703613,R
2025-09-27T19:18:49.610,2.7900002002716064,10.843950271606445,11.09595012664795,R
2025-09-27T19:18:49.610,2.782050132751465,12.09000015258789,11.134950637817383,R
2025-09-27T19:18:49.613,2.820000171661377,13.306950569152832,11.119050979614258,R
2025-09-27T19:18:49.613,2.9610002040863037,14.458050727844238,11.068950653076172,R
2025-09-27T19:18:49.627,4.389000415802002,15.534000396728516,11.056050300598145,R
2025-09-27T19:18:49.627,5.63100004196167,16.474050521850586,11.128050804138184,R
2025-09-27T19:18:49.635,7.132950305938721,17.15595054626465,11.992050170898438,R
2025-09-27T19:18:49.635,8.94795036315918,17.22300148010254,13.009050369262695,R
2025-09-27T19:18:49.641,11.047950744628906,17.204999923706055,14.29800033569336,R
2025-09-27T19:18:49.641,13.32705020904541,17.077951431274414,15.826951026916504,R
2025-09-27T19:18:49.651,15.654000282287598,15.921000480651855,17.386051177978516,R
2025-09-27T19:18:49.651,17.794950485229492,14.857951164245605,18.83700180053711,R
2025-09-27T19:18:49.662,19.546051025390625,13.629000663757324,20.06100082397461,R
2025-09-27T19:18:49.662,20.733001708984375,12.291000366210938,20.946001052856445,R
2025-09-27T19:18:49.672,20.869050979614258,10.945050239562988,21.058950424194336,R
2025-09-27T19:18:49.672,20.89695167541504,9.640950202941895,21.094951629638672,R
2025-09-27T19:18:49.682,20.77305030822754,8.395050048828125,21.001951217651367,R
2025-09-27T19:18:49.682,19.414051055908203,7.2360005378723145,19.882951736450195,R
2025-09-27T19:18:49.692,17.908950805664062,6.183000087738037,18.559051513671875,R
2025-09-27T19:18:49.692,16.13504981994629,5.277000427246094,16.951051712036133,R
2025-09-27T19:18:49.721,14.214000701904297,4.527000427246094,15.085050582885742,R
2025-09-27T19:18:49.721,12.247950553894043,4.374000072479248,13.051050186157227,R
2025-09-27T19:18:49.727,10.37505054473877,3.463050127029419,10.857000350952148,R
2025-09-27T19:18:49.727,8.629950523376465,3.38100004196167,8.644050598144531,R
2025-09-27T19:18:49.727,7.051050186157227,3.2970001697540283,6.448950290679932,R
2025-09-27T19:18:49.727,5.629950046539307,3.207000255584717,4.345950126647949,R
2025-09-27T19:18:49.746,4.4320502281188965,2.611950159072876,2.376000165939331,R
2025-09-27T19:18:49.746,3.4699501991271973,2.5699501037597656,0.5680500268936157,R
2025-09-27T19:18:49.746,2.7829501628875732,2.499000072479248,-1.0390501022338867,R
2025-09-27T19:18:49.746,2.6890501976013184,2.4049501419067383,-2.4529500007629395,R
2025-09-27T19:18:49.762,2.63100004196167,1.64805006980896,-3.724050283432007,R
2025-09-27T19:18:49.762,2.6110501289367676,1.5559500455856323,-4.837950229644775,R
2025-09-27T19:18:49.762,2.63700008392334,0.8329500555992126,-5.854050159454346,R
2025-09-27T19:18:49.770,2.700000047683716,0.7110000252723694,-6.798000335693359,R
2025-09-27T19:18:49.772,2.7940502166748047,-0.14400000870227814,-7.669050216674805,R
2025-09-27T19:18:49.772,2.8879501819610596,-0.2779500186443329,-8.381999969482422,R
2025-09-27T19:18:49.846,2.9700000286102295,-1.26705002784729,-8.527950286865234,R
2025-09-27T19:18:49.846,3.0040502548217773,-1.4089500904083252,-9.337050437927246,R
2025-09-27T19:18:49.846,2.980950117111206,-2.40405011177063,-9.38700008392334,R
2025-09-27T19:18:49.846,2.886000156402588,-2.54295015335083,-9.405000686645508,R
2025-09-27T19:18:49.846,2.0239500999450684,-3.4609501361846924,-9.384000778198242,R
2025-09-27T19:18:49.846,1.2120000123977661,-3.5659501552581787,-9.307050704956055,R
2025-09-27T19:18:49.846,0.29805001616477966,-4.216950416564941,-8.674050331115723,R
2025-09-27T19:18:49.846,-0.612000048160553,-4.294050216674805,-8.557950019836426,R
2025-09-27T19:18:49.846,-1.4100000858306885,-4.386000156402588,-7.680000305175781,R
2025-09-27T19:18:49.846,-1.543950080871582,-5.0560503005981445,-7.552050590515137,R
2025-09-27T19:18:49.846,-2.193000078201294,-5.128950119018555,-6.733950138092041,R
2025-09-27T19:18:49.846,-2.199000120162964,-5.229000091552734,-6.645000457763672,R
2025-09-27T19:18:49.846,-2.1510000228881836,-5.9239501953125,-6.535950183868408,R
2025-09-27T19:18:49.846,-2.0350501537323,-5.9920501708984375,-5.836950302124023,R
2025-09-27T19:18:49.852,-1.117050051689148,-6.072000503540039,-5.7870001792907715,R
2025-09-27T19:18:49.852,-0.9790500402450562,-6.163950443267822,-5.731950283050537,R
2025-09-27T19:18:49.973,-0.0070500001311302185,-6.781050205230713,-5.680050373077393,R
2025-09-27T19:18:49.974,0.11295000463724136,-6.826950550079346,-5.63700008392334,R
2025-09-27T19:18:49.974,0.8830500245094299,-6.877950191497803,-5.592000484466553,R
2025-09-27T19:18:49.974,0.9550500512123108,-6.9310503005981445,-5.538000106811523,R
2025-09-27T19:18:49.974,1.0390501022338867,-6.98805046081543,-5.452950477600098,R
2025-09-27T19:18:49.974,1.1160000562667847,-7.0489501953125,-4.6780500411987305,R
2025-09-27T19:18:49.974,1.1830500364303589,-7.1170501708984375,-4.557000160217285,R
2025-09-27T19:18:49.974,1.2499500513076782,-7.179000377655029,-3.5250000953674316,R
2025-09-27T19:18:49.974,1.3290001153945923,-7.222950458526611,-2.814000129699707,R
2025-09-27T19:18:49.974,2.01104998588562,-7.231050491333008,-2.0560500621795654,R
2025-09-27T19:18:49.974,2.115000009536743,-7.200000286102295,-1.2550500631332397,R
2025-09-27T19:18:49.974,2.9770500659942627,-7.126950263977051,-0.39000001549720764,R
2025-09-27T19:18:49.974,3.6790502071380615,-7.020000457763672,0.4759500324726105,R
2025-09-27T19:18:49.974,4.528950214385986,-6.298050403594971,1.3020000457763672,R
2025-09-27T19:18:49.974,5.56695032119751,-6.228000164031982,2.041949987411499,R
2025-09-27T19:18:49.974,6.814050197601318,-6.124950408935547,2.202000141143799,R
2025-09-27T19:18:49.974,8.30505084991455,-5.397000312805176,3.186000108718872,R
2025-09-27T19:18:49.974,10.059000015258789,-5.2819504737854,3.3010501861572266,R
2025-09-27T19:18:49.974,12.076050758361816,-4.353000164031982,4.150050163269043,R
2025-09-27T19:18:49.974,14.311050415039062,-3.61995005607605,4.873950004577637,R
2025-09-27T19:18:49.974,16.665000915527344,-2.764050245285034,5.9730000495910645,R
2025-09-27T19:18:49.974,18.947999954223633,-1.891050100326538,7.390050411224365,R
2025-09-27T19:18:49.979,21.012001037597656,-1.1350500583648682,9.088050842285156,R
2025-09-27T19:18:49.979,22.74300193786621,-0.9919500350952148,11.010000228881836,R
2025-09-27T19:18:49.988,24.079051971435547,-0.22200001776218414,13.092000961303711,R
2025-09-27T19:18:49.988,24.939001083374023,-0.18300001323223114,15.349950790405273,R
2025-09-27T19:18:50.019,25.027950286865234,-0.1489500105381012,17.785951614379883,R
2025-09-27T19:18:50.019,25.04505157470703,-0.09795000404119492,20.4060001373291,R
2025-09-27T19:18:50.022,24.96105194091797,-0.015000000596046448,23.172000885009766,R
2025-09-27T19:18:50.022,24.07200050354004,0.7030500173568726,25.924951553344727,R
2025-09-27T19:18:50.022,23.086950302124023,0.8250000476837158,28.441051483154297,R
2025-09-27T19:18:50.022,21.823951721191406,1.7989500761032104,30.48000144958496,R
2025-09-27T19:18:50.033,20.256000518798828,2.5200002193450928,31.85700225830078,R
2025-09-27T19:18:50.033,18.361949920654297,3.349950075149536,32.005950927734375,R
2025-09-27T19:18:50.045,16.161001205444336,4.291950225830078,32.00100326538086,R
2025-09-27T19:18:50.045,13.729950904846191,5.356950283050537,31.17795181274414,R
2025-09-27T19:18:50.049,11.217000961303711,6.450000286102295,29.49300193786621,R
2025-09-27T19:18:50.050,8.833050727844238,7.564950466156006,27.351001739501953,R
2025-09-27T19:18:50.061,6.7510504722595215,8.620950698852539,24.949050903320312,R
2025-09-27T19:18:50.061,5.136000156402588,9.589950561523438,22.513051986694336,R
2025-09-27T19:18:50.069,4.023000240325928,10.44795036315918,20.242050170898438,R
2025-09-27T19:18:50.069,3.870000123977661,11.227950096130371,18.240001678466797,R
2025-09-27T19:18:50.079,3.7789502143859863,11.93595027923584,16.600950241088867,R
2025-09-27T19:18:50.079,3.7860002517700195,12.088050842285156,15.322051048278809,R
2025-09-27T19:18:50.090,3.9210002422332764,13.053000450134277,14.271000862121582,R
2025-09-27T19:18:50.090,5.128950119018555,13.153950691223145,13.372950553894043,R
2025-09-27T19:18:50.114,6.20805025100708,13.257000923156738,12.535950660705566,R
2025-09-27T19:18:50.114,7.285950183868408,13.86600112915039,11.746950149536133,R
2025-09-27T19:18:50.121,8.23799991607666,13.87695026397705,11.065950393676758,R
2025-09-27T19:18:50.121,8.905950546264648,13.873950958251953,10.921050071716309,R
2025-09-27T19:18:50.121,9.0,13.846050262451172,9.97605037689209,R
2025-09-27T19:18:50.121,9.043950080871582,13.78800106048584,9.861000061035156,R
2025-09-27T19:18:50.134,9.028950691223145,13.701000213623047,9.10200023651123,R
2025-09-27T19:18:50.135,8.917950630187988,13.048050880432129,9.016950607299805,R
2025-09-27T19:18:50.143,7.933050155639648,12.969000816345215,8.913000106811523,R
2025-09-27T19:18:50.143,7.069050312042236,12.862950325012207,8.278950691223145,R
2025-09-27T19:18:50.241,6.028050422668457,12.118950843811035,8.253000259399414,R
2025-09-27T19:18:50.241,4.860000133514404,12.043951034545898,8.245050430297852,R
2025-09-27T19:18:50.241,3.6150002479553223,11.944950103759766,8.25,R
2025-09-27T19:18:50.241,2.323050022125244,11.247000694274902,8.256000518798828,R
2025-09-27T19:18:50.241,1.0360500812530518,11.182950973510742,8.257950782775879,R
2025-09-27T19:18:50.241,-0.2050500065088272,11.098950386047363,8.247000694274902,R
2025-09-27T19:18:50.241,-1.3300501108169556,10.998000144958496,8.22705078125,R
2025-09-27T19:18:50.241,-2.3050501346588135,10.321050643920898,8.19105052947998,R
2025-09-27T19:18:50.241,-3.145050048828125,10.282050132751465,8.121000289916992,R
2025-09-27T19:18:50.241,-3.2980501651763916,10.243050575256348,7.501950263977051,R
2025-09-27T19:18:50.241,-4.182000160217285,10.201950073242188,7.399050235748291,R
2025-09-27T19:18:50.242,-4.223999977111816,10.177950859069824,6.634950160980225,R
2025-09-27T19:18:50.242,-4.23900032043457,10.16100025177002,6.517950534820557,R
2025-09-27T19:18:50.242,-4.2210001945495605,10.144950866699219,5.7270002365112305,R
2025-09-27T19:18:50.248,-4.150050163269043,10.120950698852539,5.647050380706787,R
2025-09-27T19:18:50.249,-4.03095006942749,10.09005069732666,5.569050312042236,R
2025-09-27T19:18:50.249,-3.1410000324249268,10.063050270080566,5.535000324249268,R
2025-09-27T19:18:50.249,-3.0400500297546387,10.030050277709961,5.565000057220459,R
2025-09-27T19:18:50.249,-2.3479502201080322,9.982050895690918,5.689050197601318,R
2025-09-27T19:18:50.249,-2.26200008392334,9.921000480651855,6.811950206756592,R
2025-09-27T19:18:50.360,-2.16795015335083,9.83595085144043,7.809000492095947,R
2025-09-27T19:18:50.360,-2.074050188064575,9.738000869750977,9.0,R
2025-09-27T19:18:50.360,-1.4830501079559326,9.067049980163574,10.381950378417969,R
2025-09-27T19:18:50.360,-1.4410500526428223,9.027000427246094,11.916000366210938,R
2025-09-27T19:18:50.360,-1.3440001010894775,8.974950790405273,13.53600025177002,R
2025-09-27T19:18:50.360,-0.4350000321865082,8.910000801086426,15.193950653076172,R
2025-09-27T19:18:50.360,0.45000001788139343,8.83905029296875,16.782001495361328,R
2025-09-27T19:18:50.360,1.6500000953674316,8.758049964904785,18.20895004272461,R
2025-09-27T19:18:50.360,3.0829501152038574,8.670000076293945,19.402050018310547,R
2025-09-27T19:18:50.360,4.5,8.593950271606445,20.218950271606445,R
2025-09-27T19:18:50.360,5.7109503746032715,8.548050880432129,20.299951553344727,R
2025-09-27T19:18:50.360,6.588000297546387,8.551050186157227,20.272951126098633,R
2025-09-27T19:18:50.360,6.733950138092041,8.604000091552734,19.44900131225586,R
2025-09-27T19:18:50.360,7.471950531005859,8.71500015258789,18.010950088500977,R
2025-09-27T19:18:50.360,7.491000175476074,9.571050643920898,16.189950942993164,R
2025-09-27T19:18:50.361,7.515000343322754,9.702000617980957,14.20305061340332,R
2025-09-27T19:18:50.361,7.591050148010254,10.639050483703613,12.43695068359375,R
2025-09-27T19:18:50.361,8.358000755310059,10.75005054473877,11.181000709533691,R
2025-09-27T19:18:50.361,9.043050765991211,11.392951011657715,11.032050132751465,R
2025-09-27T19:18:50.361,9.883050918579102,11.419050216674805,10.983000755310059,R
2025-09-27T19:18:50.363,10.836000442504883,11.377050399780273,11.068950653076172,R
2025-09-27T19:18:50.363,11.88900089263916,11.263050079345703,12.127950668334961,R
2025-09-27T19:18:50.363,12.943050384521484,10.231050491333008,13.411050796508789,R
2025-09-27T19:18:50.363,13.891950607299805,9.418050765991211,14.848051071166992,R
2025-09-27T19:18:50.384,14.760000228881836,8.437950134277344,16.276050567626953,R
2025-09-27T19:18:50.385,15.486001014709473,7.348950386047363,17.52105140686035,R
2025-09-27T19:18:50.385,15.619050979614258,6.175950527191162,18.406051635742188,R
2025-09-27T19:18:50.385,16.270950317382812,4.9960503578186035,18.498001098632812,R
2025-09-27T19:18:50.395,16.240951538085938,3.870000123977661,18.481050491333008,R
2025-09-27T19:18:50.395,16.099950790405273,2.848050117492676,17.711999893188477,R
2025-09-27T19:18:50.404,14.704950332641602,1.9780501127243042,16.171051025390625,R
2025-09-27T19:18:50.404,13.450050354003906,1.2780001163482666,14.071950912475586,R
2025-09-27T19:18:50.415,11.923050880432129,1.1430000066757202,11.529000282287598,R
2025-09-27T19:18:50.415,10.318050384521484,0.361050009727478,8.734950065612793,R
2025-09-27T19:18:50.430,8.740050315856934,0.29805001616477966,5.893050193786621,R
2025-09-27T19:18:50.430,7.266000270843506,0.2460000067949295,3.2599501609802246,R
2025-09-27T19:18:50.439,5.986050128936768,0.2160000056028366,0.970050036907196,R
2025-09-27T19:18:50.440,4.9830002784729,0.2070000171661377,-0.8820000290870667,R
2025-09-27T19:18:50.444,4.281000137329102,0.21105000376701355,-2.278050184249878,R
2025-09-27T19:18:50.444,4.1770501136779785,0.2179500162601471,-3.205050230026245,R
