t,Ax,Ay,Az,Label
2025-09-27T19:19:02.596,-2.518050193786621,6.732000350952148,4.099050045013428,R
2025-09-27T19:19:02.596,-2.5309500694274902,6.67995023727417,3.9970502853393555,R
2025-09-27T19:19:02.596,-2.53695011138916,6.615000247955322,3.922950267791748,R
2025-09-27T19:19:02.596,-2.54295015335083,6.529050350189209,3.891000270843506,R
2025-09-27T19:19:02.615,-2.5309500694274902,6.436950206756592,3.9469501972198486,R
2025-09-27T19:19:02.615,-2.5069501399993896,6.357000350952148,4.0980000495910645,R
2025-09-27T19:19:02.627,-2.4970500469207764,6.304050445556641,5.325000286102295,R
2025-09-27T19:19:02.627,-2.5309500694274902,6.28095006942749,6.199050426483154,R
2025-09-27T19:19:02.639,-2.650050163269043,6.297000408172607,7.120050430297852,R
2025-09-27T19:19:02.640,-3.6919500827789307,6.367950439453125,7.966050148010254,R
2025-09-27T19:19:02.640,-4.471950054168701,6.505050182342529,8.68695068359375,R
2025-09-27T19:19:02.648,-4.633050441741943,7.552050590515137,8.845050811767578,R
2025-09-27T19:19:02.648,-5.347050189971924,7.693950176239014,10.003950119018555,R
2025-09-27T19:19:02.649,-5.248050212860107,8.692950248718262,10.947000503540039,R
2025-09-27T19:19:02.660,-3.784050226211548,8.827950477600098,12.22605037689209,R
2025-09-27T19:19:02.660,-1.798050045967102,9.636000633239746,13.861950874328613,R
2025-09-27T19:19:02.666,1.1010000705718994,9.685050010681152,15.76305103302002,R
2025-09-27T19:19:02.666,4.906949996948242,9.694950103759766,17.80605125427246,R
2025-09-27T19:19:02.686,9.457950592041016,9.651000022888184,19.867050170898438,R
2025-09-27T19:19:02.686,14.457000732421875,9.56100082397461,21.7710018157959,R
2025-09-27T19:19:02.686,19.408050537109375,8.822999954223633,23.356950759887695,R
2025-09-27T19:19:02.686,23.733001708984375,8.694000244140625,24.49395179748535,R
2025-09-27T19:19:02.767,27.274951934814453,7.698000431060791,24.658950805664062,R
2025-09-27T19:19:02.767,30.076051712036133,7.017000198364258,25.37700080871582,R
2025-09-27T19:19:02.767,32.25495147705078,6.229950428009033,25.34295082092285,R
2025-09-27T19:19:02.767,33.919952392578125,5.386950492858887,25.224000930786133,R
2025-09-27T19:19:02.768,34.8390007019043,4.477050304412842,24.178050994873047,R
2025-09-27T19:19:02.768,34.83495330810547,3.4669501781463623,23.35395050048828,R
2025-09-27T19:19:02.768,33.877052307128906,2.4220499992370605,22.36305046081543,R
2025-09-27T19:19:02.768,32.086952209472656,1.3180500268936157,21.21000099182129,R
2025-09-27T19:19:02.768,29.56395149230957,0.22995001077651978,19.885950088500977,R
2025-09-27T19:19:02.768,26.47395133972168,-0.8110500574111938,18.469051361083984,R
2025-09-27T19:19:02.768,23.053050994873047,-1.7430000305175781,16.95600128173828,R
2025-09-27T19:19:02.768,19.546051025390625,-2.587050199508667,15.409950256347656,R
2025-09-27T19:19:02.768,16.14900016784668,-3.322050094604492,13.845000267028809,R
2025-09-27T19:19:02.768,13.005001068115234,-3.475050210952759,12.31605052947998,R
2025-09-27T19:19:02.781,10.225950241088867,-4.41795015335083,10.85205078125,R
2025-09-27T19:19:02.781,7.82205057144165,-4.507950305938721,9.451050758361816,R
2025-09-27T19:19:02.786,5.811000347137451,-4.611000061035156,8.104050636291504,R
2025-09-27T19:19:02.786,4.1770501136779785,-5.230950355529785,6.7819504737854,R
2025-09-27T19:19:02.892,2.8720500469207764,-5.248050212860107,5.470950126647949,R
2025-09-27T19:19:02.893,1.894050121307373,-5.251950263977051,4.1449503898620605,R
2025-09-27T19:19:02.893,1.7389501333236694,-5.233050346374512,2.8120501041412354,R
2025-09-27T19:19:02.893,0.9079500436782837,-5.194950103759766,1.4710500240325928,R
2025-09-27T19:19:02.893,0.8730000257492065,-5.113950252532959,0.19005000591278076,R
2025-09-27T19:19:02.893,0.8629500269889832,-4.497000217437744,-1.0330500602722168,R
2025-09-27T19:19:02.893,0.8869500160217285,-4.419000148773193,-2.190000057220459,R
2025-09-27T19:19:02.893,0.9490500688552856,-4.311000347137451,-3.2659502029418945,R
2025-09-27T19:19:02.893,1.0390501022338867,-3.5460002422332764,-4.278000354766846,R
2025-09-27T19:19:02.893,1.7220001220703125,-3.463050127029419,-5.154000282287598,R
2025-09-27T19:19:02.893,1.7899501323699951,-3.3570001125335693,-5.899050235748291,R
2025-09-27T19:19:02.893,1.8769501447677612,-2.644050121307373,-6.055050373077393,R
2025-09-27T19:19:02.893,1.9810501337051392,-2.5819501876831055,-7.0249505043029785,R
2025-09-27T19:19:02.893,2.6460001468658447,-2.512050151824951,-7.116000175476074,R
2025-09-27T19:19:02.893,2.683950185775757,-2.4190502166748047,-7.209000110626221,R
2025-09-27T19:19:02.893,2.7169501781463623,-1.7959500551223755,-7.293000221252441,R
2025-09-27T19:19:02.893,2.7370500564575195,-1.7419500350952148,-7.362000465393066,R
2025-09-27T19:19:02.893,2.7400500774383545,-1.6710001230239868,-7.411950588226318,R
2025-09-27T19:19:02.893,2.7019500732421875,-1.5919500589370728,-7.449000358581543,R
2025-09-27T19:19:02.893,2.640000104904175,-1.5019500255584717,-7.462950229644775,R
2025-09-27T19:19:02.893,2.551950216293335,-0.9000000357627869,-7.465050220489502,R
2025-09-27T19:19:02.893,1.8990000486373901,-0.8740500211715698,-7.455000400543213,R
2025-09-27T19:19:02.902,1.831950068473816,-0.843000054359436,-7.4239501953125,R
2025-09-27T19:19:02.902,1.7280000448226929,-0.8239500522613525,-7.375950336456299,R
2025-09-27T19:19:02.923,1.062000036239624,-0.8130000233650208,-7.288050174713135,R
2025-09-27T19:19:02.923,0.9970500469207764,-0.8179500102996826,-6.51900053024292,R
2025-09-27T19:19:02.947,0.9010500311851501,-0.8320500254631042,-6.385050296783447,R
2025-09-27T19:19:02.947,0.2070000171661377,-0.8550000190734863,-5.3460001945495605,R
2025-09-27T19:19:02.947,0.1189500093460083,-0.8830500245094299,-4.648050308227539,R
2025-09-27T19:19:02.947,0.0010500000789761543,-0.906000018119812,-3.8929502964019775,R
2025-09-27T19:19:02.954,-0.8260500431060791,-0.9300000667572021,-3.123000144958496,R
2025-09-27T19:19:02.954,-0.9109500646591187,-0.9540000557899475,-2.4499502182006836,R
2025-09-27T19:19:02.955,-1.01895010471344,-0.9550500512123108,-2.322000026702881,R
2025-09-27T19:19:02.955,-1.711050033569336,-0.9300000667572021,-1.5750000476837158,R
2025-09-27T19:19:02.964,-1.7359501123428345,-0.8580000400543213,-1.533000111579895,R
2025-09-27T19:19:02.964,-1.746000051498413,-0.21195000410079956,-1.5319501161575317,R
2025-09-27T19:19:02.971,-1.738050103187561,-0.07605000585317612,-1.6140000820159912,R
2025-09-27T19:19:02.971,-1.7089500427246094,1.0669500827789307,-2.5129501819610596,R
2025-09-27T19:19:02.982,-1.6600500345230103,1.9969501495361328,-3.4710001945495605,R
2025-09-27T19:19:02.982,-1.5870001316070557,3.088050127029419,-4.588050365447998,R
2025-09-27T19:19:02.990,-0.8479500412940979,4.314000129699707,-5.7300004959106445,R
2025-09-27T19:19:02.990,-0.09000000357627869,5.569050312042236,-6.675000190734863,R
2025-09-27T19:19:03.000,1.102950096130371,6.799950122833252,-6.813000202178955,R
2025-09-27T19:19:03.000,2.8159501552581787,7.900050163269043,-6.8680500984191895,R
2025-09-27T19:19:03.011,5.140050411224365,8.740050315856934,-6.742950439453125,R
2025-09-27T19:19:03.011,8.170949935913086,8.86305046081543,-5.046000003814697,R
2025-09-27T19:19:03.025,11.8410005569458,8.938950538635254,-2.578050136566162,R
2025-09-27T19:19:03.025,15.928050994873047,8.938950538635254,0.8290500640869141,R
2025-09-27T19:19:03.046,20.121000289916992,8.839950561523438,5.076000213623047,R
2025-09-27T19:19:03.046,24.060001373291016,7.951050281524658,9.846000671386719,R
2025-09-27T19:19:03.046,27.38895034790039,7.138050556182861,14.808000564575195,R
2025-09-27T19:19:03.046,29.79195213317871,6.2910003662109375,19.606950759887695,R
2025-09-27T19:19:03.053,31.128002166748047,5.551950454711914,23.817001342773438,R
2025-09-27T19:19:03.053,31.180952072143555,5.391000270843506,27.286951065063477,R
2025-09-27T19:19:03.063,31.033050537109375,4.444050312042236,29.91600227355957,R
2025-09-27T19:19:03.063,29.305952072143555,4.363950252532959,31.585050582885742,R
2025-09-27T19:19:03.322,27.43695068359375,4.272000312805176,32.305049896240234,R
2025-09-27T19:19:03.322,25.27695083618164,4.180050373077393,32.2650032043457,R
2025-09-27T19:19:03.322,22.975950241088867,4.090050220489502,31.219051361083984,R
2025-09-27T19:19:03.322,20.698951721191406,4.012950420379639,29.65995216369629,R
2025-09-27T19:19:03.322,18.487951278686523,3.9439501762390137,27.559051513671875,R
2025-09-27T19:19:03.322,16.32900047302246,3.8830502033233643,25.063051223754883,R
2025-09-27T19:19:03.322,14.293050765991211,3.8370001316070557,22.225950241088867,R
2025-09-27T19:19:03.322,12.303000450134277,3.8020501136779785,19.09800148010254,R
2025-09-27T19:19:03.322,10.411050796508789,3.7950000762939453,15.813000679016113,R
2025-09-27T19:19:03.322,8.66100025177002,3.825000286102295,12.466950416564941,R
2025-09-27T19:19:03.322,7.020000457763672,3.891000270843506,9.184950828552246,R
2025-09-27T19:19:03.322,5.48205041885376,4.003050327301025,6.088950157165527,R
2025-09-27T19:19:03.322,4.027950286865234,4.849050045013428,3.2820000648498535,R
2025-09-27T19:19:03.322,2.701050043106079,4.969950199127197,0.8370000123977661,R
2025-09-27T19:19:03.322,1.492050051689148,5.874000072479248,-1.1880000829696655,R
2025-09-27T19:19:03.322,0.41895002126693726,6.007950305938721,-2.7370500564575195,R
2025-09-27T19:19:03.322,-0.4900500178337097,6.913050174713135,-3.750000238418579,R
2025-09-27T19:19:03.322,-1.2079501152038574,7.027050495147705,-3.8740501403808594,R
2025-09-27T19:19:03.322,-1.3440001010894775,7.819950580596924,-3.9030001163482666,R
2025-09-27T19:19:03.322,-2.1720001697540283,7.91895055770874,-3.808950185775757,R
2025-09-27T19:19:03.322,-2.259000062942505,8.032050132751465,-2.797950029373169,R
2025-09-27T19:19:03.322,-2.368950128555298,8.7610502243042,-1.6639500856399536,R
2025-09-27T19:19:03.322,-3.1549501419067383,8.805000305175781,-0.3840000033378601,R
2025-09-27T19:19:03.322,-3.226950168609619,8.862000465393066,0.9960000514984131,R
2025-09-27T19:19:03.322,-3.324000120162964,8.91195011138916,2.4240000247955322,R
2025-09-27T19:19:03.322,-3.415950059890747,8.956050872802734,3.876000165939331,R
2025-09-27T19:19:03.322,-3.490950107574463,8.992050170898438,5.283000469207764,R
2025-09-27T19:19:03.322,-3.5350501537323,9.009000778198242,6.633000373840332,R
2025-09-27T19:19:03.322,-3.5239500999450684,9.016050338745117,7.8760504722595215,R
2025-09-27T19:19:03.322,-3.4519500732421875,9.022950172424316,8.938950538635254,R
2025-09-27T19:19:03.322,-3.322050094604492,9.019050598144531,9.814950942993164,R
2025-09-27T19:19:03.323,-2.3519999980926514,8.997000694274902,9.97800064086914,R
2025-09-27T19:19:03.323,-2.218050003051758,8.949000358581543,10.900050163269043,R
2025-09-27T19:19:03.323,-1.2679500579833984,8.88705062866211,10.956000328063965,R
2025-09-27T19:19:03.323,-1.1400001049041748,8.802000045776367,10.995000839233398,R
2025-09-27T19:19:03.323,-0.3520500063896179,8.163000106811523,11.0110502243042,R
2025-09-27T19:19:03.323,-0.2689500153064728,8.101950645446777,10.996050834655762,R
2025-09-27T19:19:03.323,-0.1870500147342682,8.0149507522583,10.96095085144043,R
2025-09-27T19:19:03.323,-0.10605000704526901,7.914000511169434,10.903950691223145,R
2025-09-27T19:19:03.323,-0.05205000191926956,7.207050323486328,10.843950271606445,R
2025-09-27T19:19:03.323,-0.05205000191926956,7.159950256347656,10.792950630187988,R
2025-09-27T19:19:03.323,-0.12405000627040863,7.120950222015381,10.76205062866211,R
2025-09-27T19:19:03.323,-0.8779500126838684,7.116000175476074,10.744050979614258,R
2025-09-27T19:19:03.323,-1.6279500722885132,7.180950164794922,10.743000984191895,R
2025-09-27T19:19:03.323,-2.4340500831604004,7.303950309753418,10.747050285339355,R
2025-09-27T19:19:03.323,-3.1720502376556396,8.22195053100586,10.73805046081543,R
2025-09-27T19:19:03.323,-3.3349502086639404,8.356950759887695,10.70895004272461,R
2025-09-27T19:19:03.323,-4.342050075531006,9.396000862121582,10.66200065612793,R
2025-09-27T19:19:03.323,-4.405050277709961,10.120050430297852,10.618950843811035,R
2025-09-27T19:19:03.323,-4.394999980926514,10.818000793457031,10.605000495910645,R
2025-09-27T19:19:03.325,-4.249950408935547,10.951950073242188,10.6399507522583,R
2025-09-27T19:19:03.325,-2.6539502143859863,11.577000617980957,10.75005054473877,R
2025-09-27T19:19:03.343,-0.8340000510215759,11.556000709533691,11.73900032043457,R
2025-09-27T19:19:03.343,1.5529500246047974,11.475000381469727,12.670050621032715,R
2025-09-27T19:19:03.363,4.32705020904541,10.765950202941895,13.873950958251953,R
2025-09-27T19:19:03.363,7.381950378417969,10.645050048828125,15.204000473022461,R
2025-09-27T19:19:03.363,10.528050422668457,9.748950004577637,16.43400001525879,R
2025-09-27T19:19:03.363,13.581000328063965,9.589950561523438,17.361000061035156,R
2025-09-27T19:19:03.372,16.384050369262695,8.413949966430664,17.485950469970703,R
2025-09-27T19:19:03.372,18.724950790405273,7.647000312805176,17.551950454711914,R
2025-09-27T19:19:03.378,20.499000549316406,6.871950149536133,17.513999938964844,R
2025-09-27T19:19:03.378,21.65505027770996,6.111000061035156,17.356050491333008,R
2025-09-27T19:19:03.388,21.79305076599121,5.428950309753418,16.060951232910156,R
2025-09-27T19:19:03.388,21.858001708984375,5.266050338745117,15.070050239562988,R
2025-09-27T19:19:03.402,21.810001373291016,4.1610002517700195,14.04900074005127,R
2025-09-27T19:19:03.402,21.093000411987305,4.002000331878662,13.030950546264648,R
2025-09-27T19:19:03.407,20.035951614379883,2.874000072479248,12.073050498962402,R
2025-09-27T19:19:03.407,18.775951385498047,2.202000141143799,11.176950454711914,R
2025-09-27T19:19:03.420,17.334001541137695,1.5240000486373901,10.435050964355469,R
2025-09-27T19:19:03.421,15.733050346374512,1.3609501123428345,10.273950576782227,R
2025-09-27T19:19:03.427,14.023050308227539,0.23595000803470612,9.196050643920898,R
2025-09-27T19:19:03.427,12.268050193786621,0.0880500078201294,9.058050155639648,R
2025-09-27T19:19:03.437,10.504950523376465,-0.9259500503540039,8.053950309753418,R
2025-09-27T19:19:03.437,8.773950576782227,-1.051050066947937,7.891050338745117,R
2025-09-27T19:19:03.451,7.105050563812256,-1.8799500465393066,6.679050445556641,R
2025-09-27T19:19:03.451,5.533050060272217,-1.9690500497817993,5.85105037689209,R
2025-09-27T19:19:03.521,4.116000175476074,-2.0659501552581787,4.920000076293945,R
2025-09-27T19:19:03.521,2.905050039291382,-2.1610500812530518,3.9130501747131348,R
2025-09-27T19:19:03.521,1.9290001392364502,-2.2390501499176025,2.9059500694274902,R
2025-09-27T19:19:03.521,1.2300000190734863,-2.299950122833252,1.9230000972747803,R
2025-09-27T19:19:03.521,1.1299500465393066,-2.3389501571655273,1.0309500694274902,R
2025-09-27T19:19:03.521,1.0410000085830688,-2.3590500354766846,0.2880000174045563,R
2025-09-27T19:19:03.521,0.9790500402450562,-2.367000102996826,0.14100000262260437,R
2025-09-27T19:19:03.521,0.9640500545501709,-2.3519999980926514,-0.697950005531311,R
2025-09-27T19:19:03.521,0.9880500435829163,-2.3269500732421875,-0.7630500197410583,R
2025-09-27T19:19:03.521,1.0440000295639038,-2.2930500507354736,-0.820050060749054,R
2025-09-27T19:19:03.521,1.1220000982284546,-2.2540500164031982,-0.856950044631958,R
2025-09-27T19:19:03.521,1.2220500707626343,-2.215050220489502,-0.8710500597953796,R
2025-09-27T19:19:03.521,1.9120501279830933,-2.1790502071380615,-0.8560500144958496,R
2025-09-27T19:19:03.521,1.9579501152038574,-2.140050172805786,-0.8220000267028809,R
2025-09-27T19:19:03.540,2.0149500370025635,-2.0929501056671143,-0.7800000309944153,R
2025-09-27T19:19:03.540,2.080049991607666,-2.0460000038146973,-0.7560000419616699,R
