t,Ax,Ay,Az,Label
2025-09-27T19:18:36.324,10.408050537109375,6.516000270843506,19.017000198364258,R
2025-09-27T19:18:36.325,9.697050094604492,5.755050182342529,18.250951766967773,R
2025-09-27T19:18:36.325,9.568050384521484,5.6569504737854,17.46000099182129,R
2025-09-27T19:18:36.325,8.628000259399414,5.011050224304199,16.546951293945312,R
2025-09-27T19:18:36.325,8.496000289916992,4.929000377655029,15.511950492858887,R
2025-09-27T19:18:36.325,7.624950408935547,4.836000442504883,14.442000389099121,R
2025-09-27T19:18:36.325,7.52400016784668,4.194000244140625,13.342050552368164,R
2025-09-27T19:18:36.325,6.874050140380859,4.132950305938721,12.237000465393066,R
2025-09-27T19:18:36.325,6.805050373077393,4.051050186157227,11.082000732421875,R
2025-09-27T19:18:36.325,6.724050521850586,3.9439501762390137,9.906000137329102,R
2025-09-27T19:18:36.325,6.654000282287598,3.198000192642212,8.72700023651123,R
2025-09-27T19:18:36.325,6.6060004234313965,3.1300501823425293,7.534950256347656,R
2025-09-27T19:18:36.329,6.570000171661377,3.0270001888275146,6.346050262451172,R
2025-09-27T19:18:36.329,6.5560503005981445,2.2860000133514404,5.205000400543213,R
2025-09-27T19:18:36.329,6.544050216674805,2.196000099182129,4.123050212860107,R
2025-09-27T19:18:36.329,6.550050258636475,1.5730500221252441,3.126000165939331,R
2025-09-27T19:18:36.329,6.559950351715088,1.4760000705718994,2.244000196456909,R
2025-09-27T19:18:36.329,6.573000431060791,0.8040000200271606,1.5070500373840332,R
2025-09-27T19:18:36.329,6.576000213623047,0.7120500206947327,1.3579500913619995,R
2025-09-27T19:18:36.329,6.550950527191162,0.5910000205039978,0.4519500136375427,R
2025-09-27T19:18:36.329,6.508050441741943,-0.20595000684261322,0.37800002098083496,R
2025-09-27T19:18:36.329,6.436950206756592,-0.2770500183105469,0.31200000643730164,R
2025-09-27T19:18:36.329,6.327000141143799,-0.364950031042099,0.2650500237941742,R
2025-09-27T19:18:36.329,5.566050052642822,-0.9709500670433044,0.23595000803470612,R
2025-09-27T19:18:36.333,5.494950294494629,-1.0369499921798706,0.21705001592636108,R
2025-09-27T19:18:36.333,5.416950225830078,-1.1260499954223633,0.21195000410079956,R
2025-09-27T19:18:36.342,5.3359503746032715,-1.7869501113891602,0.19200000166893005,R
2025-09-27T19:18:36.342,5.265000343322754,-1.8540000915527344,0.14505000412464142,R
2025-09-27T19:18:36.353,5.202000141143799,-1.9459501504898071,0.06105000153183937,R
2025-09-27T19:18:36.353,5.143050193786621,-2.5830001831054688,-0.559950053691864,R
2025-09-27T19:18:36.362,5.095950126647949,-2.6419501304626465,-0.6349500417709351,R
2025-09-27T19:18:36.362,5.0560503005981445,-2.7120001316070557,-0.7429500222206116,R
2025-09-27T19:18:36.374,5.016000270843506,-2.797950029373169,-1.5010501146316528,R
2025-09-27T19:18:36.375,4.9710001945495605,-2.887050151824951,-1.5799500942230225,R
2025-09-27T19:18:36.382,4.908000469207764,-3.5220000743865967,-1.6800000667572021,R
2025-09-27T19:18:36.382,4.831050395965576,-3.5500502586364746,-2.2890000343322754,R
2025-09-27T19:18:36.396,4.210050106048584,-3.5880000591278076,-2.3269500732421875,R
2025-09-27T19:18:36.396,4.141050338745117,-3.6289501190185547,-2.3580000400543213,R
2025-09-27T19:18:36.403,4.04295015335083,-3.66195011138916,-2.3680500984191895,R
2025-09-27T19:18:36.403,3.289950132369995,-3.6910502910614014,-2.350950002670288,R
2025-09-27T19:18:36.427,3.204000234603882,-3.700050115585327,-2.2829999923706055,R
2025-09-27T19:18:36.427,3.0960001945495605,-3.687000274658203,-2.1690001487731934,R
2025-09-27T19:18:36.439,2.4090001583099365,-3.646050214767456,-1.27305006980896,R
2025-09-27T19:18:36.439,2.3910000324249268,-3.576000213623047,-1.125,R
2025-09-27T19:18:36.439,2.39205002784729,-3.4770002365112305,0.07800000160932541,R
2025-09-27T19:18:36.439,2.4310500621795654,-2.6950502395629883,1.0360500812530518,R
2025-09-27T19:18:36.440,2.5030500888824463,-2.587050199508667,2.2240500450134277,R
2025-09-27T19:18:36.440,2.6170501708984375,-1.7130000591278076,3.5560500621795654,R
2025-09-27T19:18:36.455,3.5440502166748047,-1.0060499906539917,4.930950164794922,R
2025-09-27T19:18:36.455,3.6760501861572266,-0.12105000764131546,6.151050090789795,R
2025-09-27T19:18:36.465,4.711950302124023,0.89805006980896,7.165950298309326,R
2025-09-27T19:18:36.465,5.398950099945068,2.0500500202178955,7.32705020904541,R
2025-09-27T19:18:36.553,5.563050270080566,3.2500500679016113,8.0910005569458,R
2025-09-27T19:18:36.553,6.595950126647949,4.4239501953125,8.07194995880127,R
2025-09-27T19:18:36.553,6.694050312042236,5.505000114440918,7.9860005378723145,R
2025-09-27T19:18:36.553,6.798000335693359,6.41295051574707,7.27500057220459,R
2025-09-27T19:18:36.553,7.411050319671631,6.574950218200684,7.162050247192383,R
2025-09-27T19:18:36.553,7.419000148773193,7.458000183105469,6.447000503540039,R
2025-09-27T19:18:36.553,7.420950412750244,7.507050514221191,6.421050071716309,R
2025-09-27T19:18:36.553,7.4320502281188965,7.51800012588501,6.481050491333008,R
2025-09-27T19:18:36.553,7.477950572967529,7.482000350952148,7.474050521850586,R
2025-09-27T19:18:36.553,7.563000202178955,7.396050453186035,8.814000129699707,R
2025-09-27T19:18:36.553,8.227950096130371,6.7260003089904785,10.558050155639648,R
2025-09-27T19:18:36.553,8.320050239562988,6.634050369262695,12.550050735473633,R
2025-09-27T19:18:36.553,8.985000610351562,6.522000312805176,14.653050422668457,R
2025-09-27T19:18:36.553,9.065999984741211,5.904000282287598,16.636051177978516,R
2025-09-27T19:18:36.553,9.15195083618164,5.892000198364258,18.32805061340332,R
2025-09-27T19:18:36.553,9.217050552368164,5.911050319671631,19.67205047607422,R
2025-09-27T19:18:36.557,9.267000198364258,5.971050262451172,20.680051803588867,R
2025-09-27T19:18:36.557,9.294000625610352,6.073950290679932,20.836950302124023,R
2025-09-27T19:18:36.594,9.31095027923584,6.886050224304199,21.61800193786621,R
2025-09-27T19:18:36.594,9.31605052947998,6.988950252532959,21.616050720214844,R
2025-09-27T19:18:36.594,9.310050010681152,7.72005033493042,21.55095100402832,R
2025-09-27T19:18:36.594,9.294000625610352,7.815000534057617,20.809051513671875,R
2025-09-27T19:18:36.594,9.262950897216797,7.924050331115723,20.074951171875,R
2025-09-27T19:18:36.594,9.223050117492676,8.638050079345703,19.156051635742188,R
2025-09-27T19:18:36.709,9.154950141906738,8.6850004196167,18.103050231933594,R
2025-09-27T19:18:36.709,8.538000106811523,8.737950325012207,16.974000930786133,R
2025-09-27T19:18:36.709,8.416950225830078,8.788949966430664,15.777000427246094,R
2025-09-27T19:18:36.709,7.3999505043029785,8.829000473022461,14.533050537109375,R
2025-09-27T19:18:36.709,6.598950386047363,8.869050025939941,13.320000648498535,R
2025-09-27T19:18:36.709,5.673000335693359,8.901000022888184,12.168000221252441,R
2025-09-27T19:18:36.710,4.615950107574463,8.934000015258789,11.065950393676758,R
2025-09-27T19:18:36.710,3.4560000896453857,8.968050003051758,10.03695011138916,R
2025-09-27T19:18:36.710,2.296950101852417,9.007050514221191,9.039000511169434,R
2025-09-27T19:18:36.710,1.1460000276565552,9.061050415039062,8.016000747680664,R
2025-09-27T19:18:36.710,0.07304999977350235,9.109950065612793,6.930000305175781,R
2025-09-27T19:18:36.710,-0.9120000600814819,9.153000831604004,5.785050392150879,R
2025-09-27T19:18:36.710,-1.7500500679016113,9.175950050354004,4.723950386047363,R
2025-09-27T19:18:36.710,-1.915950059890747,9.169950485229492,3.7480502128601074,R
2025-09-27T19:18:36.710,-2.908050060272217,9.148050308227539,2.995950222015381,R
2025-09-27T19:18:36.710,-3.0040502548217773,9.109050750732422,2.8620002269744873,R
2025-09-27T19:18:36.710,-3.1020002365112305,9.064050674438477,2.1780002117156982,R
2025-09-27T19:18:36.710,-3.1930501461029053,9.01200008392334,2.1760501861572266,R
2025-09-27T19:18:36.710,-3.2500500679016113,8.944950103759766,2.227950096130371,R
2025-09-27T19:18:36.710,-3.2700002193450928,8.881950378417969,2.359950065612793,R
2025-09-27T19:18:36.710,-3.249000072479248,8.82194995880127,3.4780502319335938,R
2025-09-27T19:18:36.711,-3.181950092315674,8.764050483703613,4.2210001945495605,R
2025-09-27T19:18:36.711,-3.0709500312805176,8.700000762939453,5.005050182342529,R
2025-09-27T19:18:36.711,-2.2930500507354736,8.619000434875488,5.75700044631958,R
2025-09-27T19:18:36.737,-2.1979501247406006,8.532000541687012,6.442050457000732,R
2025-09-27T19:18:36.738,-1.5720000267028809,7.929000377655029,6.598050117492676,R
2025-09-27T19:18:36.738,-1.495050072669983,7.891950607299805,7.612950325012207,R
2025-09-27T19:18:36.738,-1.3980001211166382,7.8409504890441895,7.728000164031982,R
2025-09-27T19:18:36.740,-0.7909500598907471,7.767000198364258,8.410050392150879,R
2025-09-27T19:18:36.740,-0.7450500130653381,7.146000385284424,8.454000473022461,R
2025-09-27T19:18:36.765,-0.7180500626564026,7.078050136566162,8.503950119018555,R
2025-09-27T19:18:36.766,-0.7410000562667847,6.991950511932373,8.569950103759766,R
2025-09-27T19:18:36.766,-0.8220000267028809,6.900000095367432,8.665950775146484,R
2025-09-27T19:18:36.766,-1.4689500331878662,6.301950454711914,9.472050666809082,R
2025-09-27T19:18:36.771,-1.5460500717163086,6.279000282287598,9.619950294494629,R
2025-09-27T19:18:36.771,-1.5940500497817993,6.253950119018555,10.836000442504883,R
2025-09-27T19:18:36.849,-1.588050127029419,6.229950428009033,11.731050491333008,R
2025-09-27T19:18:36.849,-1.4989501237869263,6.217050075531006,12.706050872802734,R
2025-09-27T19:18:36.849,-0.6619500517845154,6.223950386047363,13.677000999450684,R
2025-09-27T19:18:36.850,0.15405000746250153,6.289950370788574,14.587050437927246,R
2025-09-27T19:18:36.850,1.0230000019073486,6.420000076293945,15.3589506149292,R
2025-09-27T19:18:36.850,1.831950068473816,7.464000225067139,15.523050308227539,R
2025-09-27T19:18:36.850,2.524050235748291,8.188050270080566,16.474950790405273,R
2025-09-27T19:18:36.850,2.6200501918792725,8.938950538635254,16.46700096130371,R
2025-09-27T19:18:36.850,3.2400002479553223,9.670950889587402,16.336950302124023,R
2025-09-27T19:18:36.850,3.3190500736236572,10.363950729370117,15.08595085144043,R
2025-09-27T19:18:36.850,3.4360501766204834,10.518000602722168,14.086050987243652,R
2025-09-27T19:18:36.850,4.228950023651123,11.47800064086914,13.183950424194336,R
2025-09-27T19:18:36.850,4.300950050354004,11.565000534057617,13.02405071258545,R
2025-09-27T19:18:36.850,4.426949977874756,11.629050254821777,12.340950965881348,R
2025-09-27T19:18:36.850,5.463000297546387,11.632050514221191,12.39900016784668,R
2025-09-27T19:18:36.850,6.168000221252441,11.556000709533691,13.201050758361816,R
2025-09-27T19:18:36.936,6.970950126647949,10.89900016784668,14.217000961303711,R
2025-09-27T19:18:36.936,7.837950229644775,10.759050369262695,15.457950592041016,R
2025-09-27T19:18:36.936,8.752950668334961,9.850950241088867,16.761001586914062,R
2025-09-27T19:18:36.936,9.699000358581543,9.717000007629395,17.88195037841797,R
2025-09-27T19:18:36.936,10.594050407409668,8.74905014038086,18.69300079345703,R
2025-09-27T19:18:36.936,11.397000312805176,8.599950790405273,18.79905128479004,R
2025-09-27T19:18:36.936,11.545050621032715,7.531050205230713,18.838050842285156,R
2025-09-27T19:18:36.936,12.378000259399414,7.383000373840332,18.792001724243164,R
2025-09-27T19:18:36.936,12.394050598144531,6.372000217437744,18.630001068115234,R
2025-09-27T19:18:36.936,12.339000701904297,6.247950077056885,17.176050186157227,R
2025-09-27T19:18:36.936,11.65095043182373,5.389950275421143,15.973950386047363,R
2025-09-27T19:18:36.936,10.848000526428223,5.287050247192383,14.593050956726074,R
2025-09-27T19:18:36.936,9.931950569152832,5.176050186157227,13.13895034790039,R
2025-09-27T19:18:36.936,8.995950698852539,4.444950103759766,11.599050521850586,R
2025-09-27T19:18:36.944,8.068950653076172,4.384050369262695,10.07295036315918,R
2025-09-27T19:18:36.944,7.183950424194336,4.299000263214111,8.601000785827637,R
2025-09-27T19:18:36.944,6.364050388336182,4.192049980163574,7.267050266265869,R
2025-09-27T19:18:36.944,5.611950397491455,3.454050064086914,6.1050004959106445,R
2025-09-27T19:18:36.966,5.45205020904541,3.3829500675201416,5.094000339508057,R
2025-09-27T19:18:36.967,4.465050220489502,3.2820000648498535,4.263000011444092,R
2025-09-27T19:18:36.967,4.35705041885376,2.5480501651763916,3.541950225830078,R
2025-09-27T19:18:36.967,3.733950138092041,2.4630000591278076,2.8510501384735107,R
2025-09-27T19:18:37.072,3.6889500617980957,2.3430001735687256,2.6890501976013184,R
2025-09-27T19:18:37.072,3.658950090408325,1.4959501028060913,1.533000111579895,R
2025-09-27T19:18:37.072,3.6469502449035645,1.4089500904083252,0.8359500169754028,R
2025-09-27T19:18:37.074,3.6540002822875977,1.2919501066207886,0.14205001294612885,R
2025-09-27T19:18:37.074,3.6880502700805664,0.45795002579689026,-0.5430000424385071,R
2025-09-27T19:18:37.074,3.7639501094818115,0.37605002522468567,-0.6990000605583191,R
2025-09-27T19:18:37.074,3.882000207901001,0.26100000739097595,-1.752000093460083,R
2025-09-27T19:18:37.074,4.7310004234313965,-0.5820000171661377,-1.8829500675201416,R
2025-09-27T19:18:37.074,4.8319501876831055,-0.6850500106811523,-2.6800501346588135,R
2025-09-27T19:18:37.074,5.500950336456299,-1.4470500946044922,-2.7619500160217285,R
2025-09-27T19:18:37.074,5.5909504890441895,-1.5640500783920288,-2.848950147628784,R
2025-09-27T19:18:37.074,5.695050239562988,-2.4030001163482666,-2.9130001068115234,R
2025-09-27T19:18:37.075,5.785050392150879,-2.515050172805786,-2.9380500316619873,R
2025-09-27T19:18:37.075,5.842950344085693,-3.2629501819610596,-2.9140501022338867,R
2025-09-27T19:18:37.075,5.848050117492676,-3.355950117111206,-2.8530001640319824,R
2025-09-27T19:18:37.075,5.8120503425598145,-3.4549500942230225,-2.7460501194000244,R
2025-09-27T19:18:37.075,5.722050189971924,-4.057950019836426,-2.0149500370025635,R
2025-09-27T19:18:37.075,5.032950401306152,-4.087950229644775,-1.951050043106079,R
2025-09-27T19:18:37.075,4.918950080871582,-4.1170501708984375,-1.894950032234192,R
2025-09-27T19:18:37.075,4.07295036315918,-4.147050380706787,-1.8649500608444214,R
2025-09-27T19:18:37.075,3.9439501762390137,-4.1579999923706055,-1.8580501079559326,R
2025-09-27T19:18:37.075,3.0210001468658447,-4.156949996948242,-1.894950032234192,R
2025-09-27T19:18:37.087,2.8950002193450928,-4.147950172424316,-1.9759501218795776,R
2025-09-27T19:18:37.087,2.061000108718872,-4.13100004196167,-2.602950096130371,R
2025-09-27T19:18:37.092,1.9470001459121704,-4.113000392913818,-2.688000202178955,R
2025-09-27T19:18:37.092,1.276050090789795,-4.090950012207031,-2.7679500579833984,R
2025-09-27T19:18:37.098,1.210050106048584,-4.06695032119751,-2.8249502182006836,R
2025-09-27T19:18:37.098,1.1400001049041748,-4.029000282287598,-2.823000192642212,R
2025-09-27T19:18:37.141,1.0770000219345093,-3.9810001850128174,-2.7340500354766846,R
2025-09-27T19:18:37.141,1.0200001001358032,-3.928950071334839,-1.894050121307373,R
2025-09-27T19:18:37.142,0.9829500317573547,-3.850950241088867,-1.0030500888824463,R
2025-09-27T19:18:37.142,0.9799500703811646,-3.2119500637054443,0.06405000388622284,R
2025-09-27T19:18:37.146,1.0399500131607056,-3.1060502529144287,1.297950029373169,R
2025-09-27T19:18:37.146,1.1809500455856323,-2.176950216293335,2.6430001258850098,R
2025-09-27T19:18:37.146,2.371950149536133,-1.377000093460083,4.000950336456299,R
2025-09-27T19:18:37.146,3.328050136566162,-0.39900001883506775,5.2669501304626465,R
2025-09-27T19:18:37.155,4.449000358581543,0.6930000185966492,6.255000114440918,R
2025-09-27T19:18:37.155,5.709000110626221,1.8240001201629639,6.396000385284424,R
2025-09-27T19:18:37.162,6.9810004234313965,2.9830501079559326,6.474000453948975,R
2025-09-27T19:18:37.162,8.167950630187988,4.153050422668457,6.454050540924072,R
2025-09-27T19:18:37.188,9.925050735473633,7.656000137329102,4.698000431060791,R
2025-09-27T19:18:37.188,10.018950462341309,8.638050079345703,4.5329999923706055,R
2025-09-27T19:18:37.213,10.633950233459473,9.346050262451172,3.6349501609802246,R
2025-09-27T19:18:37.214,10.714950561523438,9.448050498962402,3.6289501190185547,R
2025-09-27T19:18:37.214,11.509050369262695,9.50100040435791,3.7609500885009766,R
2025-09-27T19:18:37.214,12.30405044555664,9.466050148010254,5.386950492858887,R
2025-09-27T19:18:37.214,13.333950996398926,9.34005069732666,7.341000556945801,R
2025-09-27T19:18:37.214,14.457000732421875,8.320950508117676,9.931950569152832,R
2025-09-27T19:18:37.220,15.568050384521484,7.609950542449951,12.943950653076172,R
2025-09-27T19:18:37.220,16.42005157470703,7.4760003089904785,15.973950386047363,R
2025-09-27T19:18:37.307,16.558950424194336,6.604050159454346,18.811050415039062,R
2025-09-27T19:18:37.307,16.651050567626953,6.50700044631958,21.379051208496094,R
2025-09-27T19:18:37.307,16.63905143737793,6.421050071716309,23.56905174255371,R
2025-09-27T19:18:37.307,16.468050003051758,6.412050247192383,25.240951538085938,R
2025-09-27T19:18:37.307,14.893950462341309,6.499950408935547,26.212051391601562,R
2025-09-27T19:18:37.307,13.642050743103027,7.252950191497803,26.262001037597656,R
2025-09-27T19:18:37.307,12.469950675964355,7.930050373077393,26.148000717163086,R
2025-09-27T19:18:37.307,11.449050903320312,8.086950302124023,24.688051223754883,R
2025-09-27T19:18:37.307,10.587000846862793,9.171000480651855,23.02305030822754,R
2025-09-27T19:18:37.307,9.81195068359375,9.313950538635254,21.052051544189453,R
2025-09-27T19:18:37.308,9.64905071258545,10.264050483703613,18.86895179748535,R
2025-09-27T19:18:37.308,8.59005069732666,10.381050109863281,16.57200050354004,R
2025-09-27T19:18:37.308,8.464950561523438,11.041950225830078,14.24100112915039,R
2025-09-27T19:18:37.308,7.668000221252441,11.089950561523438,11.97705078125,R
2025-09-27T19:18:37.308,7.564950466156006,11.11500072479248,9.88800048828125,R
2025-09-27T19:18:37.308,6.813000202178955,11.11305046081543,8.086950302124023,R
2025-09-27T19:18:37.321,6.690000534057617,11.086050987243652,6.592950344085693,R
2025-09-27T19:18:37.322,5.728950500488281,11.032050132751465,5.410950183868408,R
